[{"studyid":"CDISCPILOT01","usubjid":"01-701-1015","subjid":"1015","siteid":"701","sitegr1":"701","arm":"Placebo","trt01p":"Placebo","trt01pn":0,"trt01a":"Placebo","trt01an":0,"trtsdt":"2014-01-02","trtedt":"2014-07-02","trtdur":182,"avgdd":0,"cumdose":0,"age":63,"agegr1":"<65","agegr1n":1,"ageu":"YEARS","race":"WHITE","racen":1,"sex":"F","ethnic":"HISPANIC OR LATINO","saffl":"Y","ittfl":"Y","efffl":"Y","comp8fl":"Y","comp16fl":"Y","comp24fl":"Y","disconfl":"","dsraefl":"","dthfl":"","bmibl":25.1,"bmiblgr1":"25-<30","heightbl":147.3,"weightbl":54.4,"educlvl":16,"disonsdt":"2010-04-30","durdis":43.9,"durdsgr1":">=12","visit1dt":"2013-12-26","rfstdtc":"2014-01-02","rfendtc":"2014-07-02","visnumen":12,"rfendt":"2014-07-02","dcdecod":"COMPLETED","dcreascd":"Completed","mmsetot":23},{"studyid":"CDISCPILOT01","usubjid":"01-701-1023","subjid":"1023","siteid":"701","sitegr1":"701","arm":"Placebo","trt01p":"Placebo","trt01pn":0,"trt01a":"Placebo","trt01an":0,"trtsdt":"2012-08-05","trtedt":"2012-09-01","trtdur":28,"avgdd":0,"cumdose":0,"age":64,"agegr1":"<65","agegr1n":1,"ageu":"YEARS","race":"WHITE","racen":1,"sex":"M","ethnic":"HISPANIC OR LATINO","saffl":"Y","ittfl":"Y","efffl":"Y","comp8fl":"N","comp16fl":"N","comp24fl":"N","disconfl":"Y","dsraefl":"Y","dthfl":"","bmibl":30.4,"bmiblgr1":">=30","heightbl":162.6,"weightbl":80.3,"educlvl":14,"disonsdt":"2006-03-11","durdis":76.4,"durdsgr1":">=12","visit1dt":"2012-07-22","rfstdtc":"2012-08-05","rfendtc":"2012-09-02","visnumen":5,"rfendt":"2012-09-02","dcdecod":"ADVERSE EVENT","dcreascd":"Adverse Event","mmsetot":23},{"studyid":"CDISCPILOT01","usubjid":"01-701-1028","subjid":"1028","siteid":"701","sitegr1":"701","arm":"Xanomeline High Dose","trt01p":"Xanomeline High Dose","trt01pn":81,"trt01a":"Xanomeline High Dose","trt01an":81,"trtsdt":"2013-07-19","trtedt":"2014-01-14","trtdur":180,"avgdd":77.7,"cumdose":13986,"age":71,"agegr1":"65-80","agegr1n":2,"ageu":"YEARS","race":"WHITE","racen":1,"sex":"M","ethnic":"NOT HISPANIC OR LATINO","saffl":"Y","ittfl":"Y","efffl":"Y","comp8fl":"Y","comp16fl":"Y","comp24fl":"Y","disconfl":"","dsraefl":"","dthfl":"","bmibl":31.4,"bmiblgr1":">=30","heightbl":177.8,"weightbl":99.3,"educlvl":16,"disonsdt":"2009-12-16","durdis":42.8,"durdsgr1":">=12","visit1dt":"2013-07-11","rfstdtc":"2013-07-19","rfendtc":"2014-01-14","visnumen":12,"rfendt":"2014-01-14","dcdecod":"COMPLETED","dcreascd":"Completed","mmsetot":23},{"studyid":"CDISCPILOT01","usubjid":"01-701-1033","subjid":"1033","siteid":"701","sitegr1":"701","arm":"Xanomeline Low Dose","trt01p":"Xanomeline Low Dose","trt01pn":54,"trt01a":"Xanomeline Low Dose","trt01an":54,"trtsdt":"2014-03-18","trtedt":"2014-03-31","trtdur":14,"avgdd":54,"cumdose":756,"age":74,"agegr1":"65-80","agegr1n":2,"ageu":"YEARS","race":"WHITE","racen":1,"sex":"M","ethnic":"NOT HISPANIC OR LATINO","saffl":"Y","ittfl":"Y","efffl":"Y","comp8fl":"N","comp16fl":"N","comp24fl":"N","disconfl":"Y","dsraefl":"","dthfl":"","bmibl":28.8,"bmiblgr1":"25-<30","heightbl":175.3,"weightbl":88.5,"educlvl":12,"disonsdt":"2009-08-02","durdis":55.3,"durdsgr1":">=12","visit1dt":"2014-03-10","rfstdtc":"2014-03-18","rfendtc":"2014-04-14","visnumen":5,"rfendt":"2014-04-14","dcdecod":"STUDY TERMINATED BY SPONSOR","dcreascd":"Sponsor Decision","mmsetot":23},{"studyid":"CDISCPILOT01","usubjid":"01-701-1034","subjid":"1034","siteid":"701","sitegr1":"701","arm":"Xanomeline High Dose","trt01p":"Xanomeline High Dose","trt01pn":81,"trt01a":"Xanomeline High Dose","trt01an":81,"trtsdt":"2014-07-01","trtedt":"2014-12-30","trtdur":183,"avgdd":76.9,"cumdose":14067,"age":77,"agegr1":"65-80","agegr1n":2,"ageu":"YEARS","race":"WHITE","racen":1,"sex":"F","ethnic":"NOT HISPANIC OR LATINO","saffl":"Y","ittfl":"Y","efffl":"Y","comp8fl":"Y","comp16fl":"Y","comp24fl":"Y","disconfl":"","dsraefl":"","dthfl":"","bmibl":26.1,"bmiblgr1":"25-<30","heightbl":154.9,"weightbl":62.6,"educlvl":9,"disonsdt":"2011-09-29","durdis":32.9,"durdsgr1":">=12","visit1dt":"2014-06-24","rfstdtc":"2014-07-01","rfendtc":"2014-12-30","visnumen":12,"rfendt":"2014-12-30","dcdecod":"COMPLETED","dcreascd":"Completed","mmsetot":21},{"studyid":"CDISCPILOT01","usubjid":"01-701-1047","subjid":"1047","siteid":"701","sitegr1":"701","arm":"Placebo","trt01p":"Placebo","trt01pn":0,"trt01a":"Placebo","trt01an":0,"trtsdt":"2013-02-12","trtedt":"2013-03-09","trtdur":26,"avgdd":0,"cumdose":0,"age":85,"agegr1":">80","agegr1n":3,"ageu":"YEARS","race":"WHITE","racen":1,"sex":"F","ethnic":"NOT HISPANIC OR LATINO","saffl":"Y","ittfl":"Y","efffl":"Y","comp8fl":"N","comp16fl":"N","comp24fl":"N","disconfl":"Y","dsraefl":"Y","dthfl":"","bmibl":30.4,"bmiblgr1":">=30","heightbl":148.6,"weightbl":67.1,"educlvl":8,"disonsdt":"2009-07-26","durdis":42,"durdsgr1":">=12","visit1dt":"2013-01-22","rfstdtc":"2013-02-12","rfendtc":"2013-03-29","visnumen":6,"rfendt":"2013-03-29","dcdecod":"ADVERSE EVENT","dcreascd":"Adverse Event","mmsetot":23},{"studyid":"CDISCPILOT01","usubjid":"01-701-1097","subjid":"1097","siteid":"701","sitegr1":"701","arm":"Xanomeline Low Dose","trt01p":"Xanomeline Low Dose","trt01pn":54,"trt01a":"Xanomeline Low Dose","trt01an":54,"trtsdt":"2014-01-01","trtedt":"2014-07-09","trtdur":190,"avgdd":54,"cumdose":10260,"age":68,"agegr1":"65-80","agegr1n":2,"ageu":"YEARS","race":"WHITE","racen":1,"sex":"M","ethnic":"NOT HISPANIC OR LATINO","saffl":"Y","ittfl":"Y","efffl":"Y","comp8fl":"Y","comp16fl":"Y","comp24fl":"Y","disconfl":"","dsraefl":"","dthfl":"","bmibl":27.3,"bmiblgr1":"25-<30","heightbl":168.9,"weightbl":78,"educlvl":18,"disonsdt":"2005-09-22","durdis":99.1,"durdsgr1":">=12","visit1dt":"2013-12-23","rfstdtc":"2014-01-01","rfendtc":"2014-07-09","visnumen":12,"rfendt":"2014-07-09","dcdecod":"COMPLETED","dcreascd":"Completed","mmsetot":10},{"studyid":"CDISCPILOT01","usubjid":"01-701-1111","subjid":"1111","siteid":"701","sitegr1":"701","arm":"Xanomeline Low Dose","trt01p":"Xanomeline Low Dose","trt01pn":54,"trt01a":"Xanomeline Low Dose","trt01an":54,"trtsdt":"2012-09-07","trtedt":"2012-09-16","trtdur":10,"avgdd":54,"cumdose":540,"age":81,"agegr1":">80","agegr1n":3,"ageu":"YEARS","race":"WHITE","racen":1,"sex":"F","ethnic":"NOT HISPANIC OR LATINO","saffl":"Y","ittfl":"Y","efffl":"Y","comp8fl":"N","comp16fl":"N","comp24fl":"N","disconfl":"Y","dsraefl":"Y","dthfl":"","bmibl":23.9,"bmiblgr1":"<25","heightbl":158.2,"weightbl":59.9,"educlvl":22,"disonsdt":"2009-04-04","durdis":40.7,"durdsgr1":">=12","visit1dt":"2012-08-25","rfstdtc":"2012-09-07","rfendtc":"2012-09-17","visnumen":4,"rfendt":"2012-09-17","dcdecod":"ADVERSE EVENT","dcreascd":"Adverse Event","mmsetot":23},{"studyid":"CDISCPILOT01","usubjid":"01-701-1115","subjid":"1115","siteid":"701","sitegr1":"701","arm":"Xanomeline Low Dose","trt01p":"Xanomeline Low Dose","trt01pn":54,"trt01a":"Xanomeline Low Dose","trt01an":54,"trtsdt":"2012-11-30","trtedt":"2013-01-23","trtdur":55,"avgdd":54,"cumdose":2970,"age":84,"agegr1":">80","agegr1n":3,"ageu":"YEARS","race":"WHITE","racen":1,"sex":"M","ethnic":"NOT HISPANIC OR LATINO","saffl":"Y","ittfl":"Y","efffl":"Y","comp8fl":"Y","comp16fl":"N","comp24fl":"N","disconfl":"Y","dsraefl":"Y","dthfl":"","bmibl":23.9,"bmiblgr1":"<25","heightbl":181.6,"weightbl":78.9,"educlvl":12,"disonsdt":"2004-05-28","durdis":101.9,"durdsgr1":">=12","visit1dt":"2012-11-23","rfstdtc":"2012-11-30","rfendtc":"2013-01-23","visnumen":8,"rfendt":"2013-01-23","dcdecod":"ADVERSE EVENT","dcreascd":"Adverse Event","mmsetot":20},{"studyid":"CDISCPILOT01","usubjid":"01-701-1118","subjid":"1118","siteid":"701","sitegr1":"701","arm":"Placebo","trt01p":"Placebo","trt01pn":0,"trt01a":"Placebo","trt01an":0,"trtsdt":"2014-03-12","trtedt":"2014-09-09","trtdur":182,"avgdd":0,"cumdose":0,"age":52,"agegr1":"<65","agegr1n":1,"ageu":"YEARS","race":"WHITE","racen":1,"sex":"M","ethnic":"NOT HISPANIC OR LATINO","saffl":"Y","ittfl":"Y","efffl":"Y","comp8fl":"Y","comp16fl":"Y","comp24fl":"Y","disconfl":"","dsraefl":"","dthfl":"","bmibl":21.9,"bmiblgr1":"<25","heightbl":180.3,"weightbl":71.2,"educlvl":14,"disonsdt":"2010-06-24","durdis":44.2,"durdsgr1":">=12","visit1dt":"2014-02-27","rfstdtc":"2014-03-12","rfendtc":"2014-09-09","visnumen":12,"rfendt":"2014-09-09","dcdecod":"COMPLETED","dcreascd":"Completed","mmsetot":20},{"studyid":"CDISCPILOT01","usubjid":"01-701-1130","subjid":"1130","siteid":"701","sitegr1":"701","arm":"Placebo","trt01p":"Placebo","trt01pn":0,"trt01a":"Placebo","trt01an":0,"trtsdt":"2014-02-15","trtedt":"2014-08-16","trtdur":183,"avgdd":0,"cumdose":0,"age":84,"agegr1":">80","agegr1n":3,"ageu":"YEARS","race":"WHITE","racen":1,"sex":"M","ethnic":"NOT HISPANIC OR LATINO","saffl":"Y","ittfl":"Y","efffl":"Y","comp8fl":"Y","comp16fl":"Y","comp24fl":"Y","disconfl":"","dsraefl":"","dthfl":"","bmibl":27.6,"bmiblgr1":"25-<30","heightbl":169.7,"weightbl":79.4,"educlvl":12,"disonsdt":"2010-05-22","durdis":44.7,"durdsgr1":">=12","visit1dt":"2014-02-09","rfstdtc":"2014-02-15","rfendtc":"2014-08-16","visnumen":12,"rfendt":"2014-08-16","dcdecod":"COMPLETED","dcreascd":"Completed","mmsetot":19},{"studyid":"CDISCPILOT01","usubjid":"01-701-1133","subjid":"1133","siteid":"701","sitegr1":"701","arm":"Xanomeline High Dose","trt01p":"Xanomeline High Dose","trt01pn":81,"trt01a":"Xanomeline High Dose","trt01an":81,"trtsdt":"2012-10-28","trtedt":"2013-04-28","trtdur":183,"avgdd":77.2,"cumdose":14121,"age":81,"agegr1":">80","agegr1n":3,"ageu":"YEARS","race":"WHITE","racen":1,"sex":"F","ethnic":"NOT HISPANIC OR LATINO","saffl":"Y","ittfl":"Y","efffl":"Y","comp8fl":"Y","comp16fl":"Y","comp24fl":"Y","disconfl":"","dsraefl":"","dthfl":"","bmibl":28.1,"bmiblgr1":"25-<30","heightbl":162.6,"weightbl":74.4,"educlvl":10,"disonsdt":"2010-03-11","durdis":31.5,"durdsgr1":">=12","visit1dt":"2012-10-23","rfstdtc":"2012-10-28","rfendtc":"2013-04-29","visnumen":12,"rfendt":"2013-04-29","dcdecod":"COMPLETED","dcreascd":"Completed","mmsetot":21},{"studyid":"CDISCPILOT01","usubjid":"01-701-1146","subjid":"1146","siteid":"701","sitegr1":"701","arm":"Xanomeline High Dose","trt01p":"Xanomeline High Dose","trt01pn":81,"trt01a":"Xanomeline High Dose","trt01an":81,"trtsdt":"2013-05-20","trtedt":"2013-06-26","trtdur":38,"avgdd":70.3,"cumdose":2673,"age":75,"agegr1":"65-80","agegr1n":2,"ageu":"YEARS","race":"WHITE","racen":1,"sex":"F","ethnic":"NOT HISPANIC OR LATINO","saffl":"Y","ittfl":"Y","efffl":"Y","comp8fl":"N","comp16fl":"N","comp24fl":"N","disconfl":"Y","dsraefl":"Y","dthfl":"","bmibl":24.9,"bmiblgr1":"<25","heightbl":147.3,"weightbl":54,"educlvl":16,"disonsdt":"2009-11-17","durdis":41.7,"durdsgr1":">=12","visit1dt":"2013-05-07","rfstdtc":"2013-05-20","rfendtc":"2013-06-30","visnumen":7,"rfendt":"2013-06-30","dcdecod":"ADVERSE EVENT","dcreascd":"Adverse Event","mmsetot":22},{"studyid":"CDISCPILOT01","usubjid":"01-701-1148","subjid":"1148","siteid":"701","sitegr1":"701","arm":"Xanomeline High Dose","trt01p":"Xanomeline High Dose","trt01pn":81,"trt01a":"Xanomeline High Dose","trt01an":81,"trtsdt":"2013-08-23","trtedt":"2014-02-20","trtdur":182,"avgdd":77.1,"cumdose":14040,"age":57,"agegr1":"<65","agegr1n":1,"ageu":"YEARS","race":"WHITE","racen":1,"sex":"M","ethnic":"NOT HISPANIC OR LATINO","saffl":"Y","ittfl":"Y","efffl":"Y","comp8fl":"Y","comp16fl":"Y","comp24fl":"Y","disconfl":"","dsraefl":"","dthfl":"","bmibl":28.3,"bmiblgr1":"25-<30","heightbl":175.3,"weightbl":87.1,"educlvl":15,"disonsdt":"2010-12-12","durdis":32.1,"durdsgr1":">=12","visit1dt":"2013-08-14","rfstdtc":"2013-08-23","rfendtc":"2014-02-20","visnumen":12,"rfendt":"2014-02-20","dcdecod":"COMPLETED","dcreascd":"Completed","mmsetot":21},{"studyid":"CDISCPILOT01","usubjid":"01-701-1153","subjid":"1153","siteid":"701","sitegr1":"701","arm":"Placebo","trt01p":"Placebo","trt01pn":0,"trt01a":"Placebo","trt01an":0,"trtsdt":"2013-09-23","trtedt":"2014-03-16","trtdur":175,"avgdd":0,"cumdose":0,"age":79,"agegr1":"65-80","agegr1n":2,"ageu":"YEARS","race":"WHITE","racen":1,"sex":"F","ethnic":"NOT HISPANIC OR LATINO","saffl":"Y","ittfl":"Y","efffl":"Y","comp8fl":"Y","comp16fl":"Y","comp24fl":"Y","disconfl":"","dsraefl":"","dthfl":"","bmibl":23.8,"bmiblgr1":"<25","heightbl":156.2,"weightbl":58.1,"educlvl":6,"disonsdt":"2005-05-13","durdis":99.8,"durdsgr1":">=12","visit1dt":"2013-09-06","rfstdtc":"2013-09-23","rfendtc":"2014-04-01","visnumen":12,"rfendt":"2014-04-01","dcdecod":"COMPLETED","dcreascd":"Completed","mmsetot":10},{"studyid":"CDISCPILOT01","usubjid":"01-701-1180","subjid":"1180","siteid":"701","sitegr1":"701","arm":"Xanomeline High Dose","trt01p":"Xanomeline High Dose","trt01pn":81,"trt01a":"Xanomeline High Dose","trt01an":81,"trtsdt":"2013-02-12","trtedt":"2013-03-18","trtdur":35,"avgdd":70.2,"cumdose":2457,"age":56,"agegr1":"<65","agegr1n":1,"ageu":"YEARS","race":"WHITE","racen":1,"sex":"M","ethnic":"NOT HISPANIC OR LATINO","saffl":"Y","ittfl":"Y","efffl":"Y","comp8fl":"N","comp16fl":"N","comp24fl":"N","disconfl":"Y","dsraefl":"Y","dthfl":"","bmibl":27.6,"bmiblgr1":"25-<30","heightbl":180.3,"weightbl":89.8,"educlvl":16,"disonsdt":"2008-09-21","durdis":52.3,"durdsgr1":">=12","visit1dt":"2013-01-28","rfstdtc":"2013-02-12","rfendtc":"2013-03-23","visnumen":7,"rfendt":"2013-03-23","dcdecod":"ADVERSE EVENT","dcreascd":"Adverse Event","mmsetot":19},{"studyid":"CDISCPILOT01","usubjid":"01-701-1181","subjid":"1181","siteid":"701","sitegr1":"701","arm":"Xanomeline High Dose","trt01p":"Xanomeline High Dose","trt01pn":81,"trt01a":"Xanomeline High Dose","trt01an":81,"trtsdt":"2013-12-05","trtedt":"2013-12-09","trtdur":5,"avgdd":54,"cumdose":270,"age":79,"agegr1":"65-80","agegr1n":2,"ageu":"YEARS","race":"WHITE","racen":1,"sex":"F","ethnic":"NOT HISPANIC OR LATINO","saffl":"Y","ittfl":"Y","efffl":"Y","comp8fl":"N","comp16fl":"N","comp24fl":"N","disconfl":"Y","dsraefl":"Y","dthfl":"","bmibl":27.8,"bmiblgr1":"25-<30","heightbl":154.9,"weightbl":66.7,"educlvl":15,"disonsdt":"2008-08-26","durdis":63,"durdsgr1":">=12","visit1dt":"2013-11-26","rfstdtc":"2013-12-05","rfendtc":"2013-12-12","visnumen":4,"rfendt":"2013-12-12","dcdecod":"ADVERSE EVENT","dcreascd":"Adverse Event","mmsetot":10},{"studyid":"CDISCPILOT01","usubjid":"01-701-1188","subjid":"1188","siteid":"701","sitegr1":"701","arm":"Xanomeline Low Dose","trt01p":"Xanomeline Low Dose","trt01pn":54,"trt01a":"Xanomeline Low Dose","trt01an":54,"trtsdt":"2013-02-15","trtedt":"2013-03-24","trtdur":38,"avgdd":54,"cumdose":2052,"age":71,"agegr1":"65-80","agegr1n":2,"ageu":"YEARS","race":"WHITE","racen":1,"sex":"M","ethnic":"NOT HISPANIC OR LATINO","saffl":"Y","ittfl":"Y","efffl":"Y","comp8fl":"N","comp16fl":"N","comp24fl":"N","disconfl":"Y","dsraefl":"Y","dthfl":"","bmibl":32,"bmiblgr1":">=30","heightbl":177.8,"weightbl":101.2,"educlvl":16,"disonsdt":"2005-09-14","durdis":88.7,"durdsgr1":">=12","visit1dt":"2013-02-03","rfstdtc":"2013-02-15","rfendtc":"2013-03-25","visnumen":7,"rfendt":"2013-03-25","dcdecod":"ADVERSE EVENT","dcreascd":"Adverse Event","mmsetot":23},{"studyid":"CDISCPILOT01","usubjid":"01-701-1192","subjid":"1192","siteid":"701","sitegr1":"701","arm":"Xanomeline Low Dose","trt01p":"Xanomeline Low Dose","trt01pn":54,"trt01a":"Xanomeline Low Dose","trt01an":54,"trtsdt":"2012-07-22","trtedt":"2013-01-20","trtdur":183,"avgdd":54,"cumdose":9882,"age":80,"agegr1":"65-80","agegr1n":2,"ageu":"YEARS","race":"WHITE","racen":1,"sex":"F","ethnic":"NOT HISPANIC OR LATINO","saffl":"Y","ittfl":"Y","efffl":"Y","comp8fl":"Y","comp16fl":"Y","comp24fl":"Y","disconfl":"","dsraefl":"","dthfl":"","bmibl":27.8,"bmiblgr1":"25-<30","heightbl":151.1,"weightbl":63.5,"educlvl":12,"disonsdt":"2009-03-15","durdis":39.8,"durdsgr1":">=12","visit1dt":"2012-07-08","rfstdtc":"2012-07-22","rfendtc":"2013-01-20","visnumen":12,"rfendt":"2013-01-20","dcdecod":"COMPLETED","dcreascd":"Completed","mmsetot":23},{"studyid":"CDISCPILOT01","usubjid":"01-701-1203","subjid":"1203","siteid":"701","sitegr1":"701","arm":"Placebo","trt01p":"Placebo","trt01pn":0,"trt01a":"Placebo","trt01an":0,"trtsdt":"2013-02-02","trtedt":"2013-08-03","trtdur":183,"avgdd":0,"cumdose":0,"age":81,"agegr1":">80","agegr1n":3,"ageu":"YEARS","race":"BLACK OR AFRICAN AMERICAN","racen":2,"sex":"F","ethnic":"NOT HISPANIC OR LATINO","saffl":"Y","ittfl":"Y","efffl":"Y","comp8fl":"Y","comp16fl":"Y","comp24fl":"Y","disconfl":"","dsraefl":"","dthfl":"","bmibl":25.9,"bmiblgr1":"25-<30","heightbl":160,"weightbl":66.2,"educlvl":13,"disonsdt":"2011-04-19","durdis":21.3,"durdsgr1":">=12","visit1dt":"2013-01-25","rfstdtc":"2013-02-02","rfendtc":"2013-08-03","visnumen":12,"rfendt":"2013-08-03","dcdecod":"COMPLETED","dcreascd":"Completed","mmsetot":21},{"studyid":"CDISCPILOT01","usubjid":"01-701-1211","subjid":"1211","siteid":"701","sitegr1":"701","arm":"Xanomeline Low Dose","trt01p":"Xanomeline Low Dose","trt01pn":54,"trt01a":"Xanomeline Low Dose","trt01an":54,"trtsdt":"2012-11-15","trtedt":"2013-01-12","trtdur":59,"avgdd":54,"cumdose":3186,"age":76,"agegr1":"65-80","agegr1n":2,"ageu":"YEARS","race":"WHITE","racen":1,"sex":"F","ethnic":"NOT HISPANIC OR LATINO","saffl":"Y","ittfl":"Y","efffl":"Y","comp8fl":"Y","comp16fl":"N","comp24fl":"N","disconfl":"Y","dsraefl":"","dthfl":"Y","bmibl":17.7,"bmiblgr1":"<25","heightbl":160,"weightbl":45.4,"educlvl":12,"disonsdt":"2010-03-19","durdis":31.4,"durdsgr1":">=12","visit1dt":"2012-10-30","rfstdtc":"2012-11-15","rfendtc":"2013-01-14","visnumen":9,"rfendt":"2013-01-14","dcdecod":"DEATH","dcreascd":"Death","mmsetot":12},{"studyid":"CDISCPILOT01","usubjid":"01-701-1234","subjid":"1234","siteid":"701","sitegr1":"701","arm":"Placebo","trt01p":"Placebo","trt01pn":0,"trt01a":"Placebo","trt01an":0,"trtsdt":"2013-03-30","trtedt":"2013-09-22","trtdur":177,"avgdd":0,"cumdose":0,"age":69,"agegr1":"65-80","agegr1n":2,"ageu":"YEARS","race":"WHITE","racen":1,"sex":"M","ethnic":"NOT HISPANIC OR LATINO","saffl":"Y","ittfl":"Y","efffl":"Y","comp8fl":"Y","comp16fl":"Y","comp24fl":"Y","disconfl":"","dsraefl":"","dthfl":"","bmibl":23.4,"bmiblgr1":"<25","heightbl":181.6,"weightbl":77.1,"educlvl":18,"disonsdt":"2006-08-11","durdis":79.3,"durdsgr1":">=12","visit1dt":"2013-03-20","rfstdtc":"2013-03-30","rfendtc":"2013-09-22","visnumen":12,"rfendt":"2013-09-22","dcdecod":"COMPLETED","dcreascd":"Completed","mmsetot":20},{"studyid":"CDISCPILOT01","usubjid":"01-701-1239","subjid":"1239","siteid":"701","sitegr1":"701","arm":"Xanomeline High Dose","trt01p":"Xanomeline High Dose","trt01pn":81,"trt01a":"Xanomeline High Dose","trt01an":81,"trtsdt":"2014-01-11","trtedt":"2014-07-10","trtdur":181,"avgdd":76.8,"cumdose":13905,"age":56,"agegr1":"<65","agegr1n":1,"ageu":"YEARS","race":"WHITE","racen":1,"sex":"M","ethnic":"HISPANIC OR LATINO","saffl":"Y","ittfl":"Y","efffl":"Y","comp8fl":"Y","comp16fl":"Y","comp24fl":"Y","disconfl":"","dsraefl":"","dthfl":"","bmibl":33.6,"bmiblgr1":">=30","heightbl":168.9,"weightbl":95.9,"educlvl":11,"disonsdt":"2003-09-23","durdis":123.2,"durdsgr1":">=12","visit1dt":"2013-12-28","rfstdtc":"2014-01-11","rfendtc":"2014-07-11","visnumen":12,"rfendt":"2014-07-11","dcdecod":"COMPLETED","dcreascd":"Completed","mmsetot":23},{"studyid":"CDISCPILOT01","usubjid":"01-701-1275","subjid":"1275","siteid":"701","sitegr1":"701","arm":"Xanomeline High Dose","trt01p":"Xanomeline High Dose","trt01pn":81,"trt01a":"Xanomeline High Dose","trt01an":81,"trtsdt":"2014-02-07","trtedt":"2014-05-31","trtdur":114,"avgdd":77.2,"cumdose":8802,"age":61,"agegr1":"<65","agegr1n":1,"ageu":"YEARS","race":"AMERICAN INDIAN OR ALASKA NATIVE","racen":6,"sex":"M","ethnic":"NOT HISPANIC OR LATINO","saffl":"Y","ittfl":"Y","efffl":"Y","comp8fl":"Y","comp16fl":"Y","comp24fl":"N","disconfl":"Y","dsraefl":"","dthfl":"","bmibl":24.6,"bmiblgr1":"<25","heightbl":167.6,"weightbl":69,"educlvl":12,"disonsdt":"2011-09-17","durdis":28.3,"durdsgr1":">=12","visit1dt":"2014-01-25","rfstdtc":"2014-02-07","rfendtc":"2014-06-14","visnumen":10,"rfendt":"2014-06-14","dcdecod":"WITHDRAWAL BY SUBJECT","dcreascd":"Withdrew Consent","mmsetot":22},{"studyid":"CDISCPILOT01","usubjid":"01-701-1287","subjid":"1287","siteid":"701","sitegr1":"701","arm":"Xanomeline High Dose","trt01p":"Xanomeline High Dose","trt01pn":81,"trt01a":"Xanomeline High Dose","trt01an":81,"trtsdt":"2014-01-25","trtedt":"2014-07-26","trtdur":183,"avgdd":76.3,"cumdose":13959,"age":56,"agegr1":"<65","agegr1n":1,"ageu":"YEARS","race":"WHITE","racen":1,"sex":"F","ethnic":"HISPANIC OR LATINO","saffl":"Y","ittfl":"Y","efffl":"Y","comp8fl":"Y","comp16fl":"Y","comp24fl":"Y","disconfl":"","dsraefl":"","dthfl":"","bmibl":23.5,"bmiblgr1":"<25","heightbl":154.9,"weightbl":56.3,"educlvl":14,"disonsdt":"2009-10-30","durdis":50.6,"durdsgr1":">=12","visit1dt":"2014-01-17","rfstdtc":"2014-01-25","rfendtc":"2014-07-26","visnumen":12,"rfendt":"2014-07-26","dcdecod":"COMPLETED","dcreascd":"Completed","mmsetot":22},{"studyid":"CDISCPILOT01","usubjid":"01-701-1294","subjid":"1294","siteid":"701","sitegr1":"701","arm":"Xanomeline Low Dose","trt01p":"Xanomeline Low Dose","trt01pn":54,"trt01a":"Xanomeline Low Dose","trt01an":54,"trtsdt":"2013-03-24","trtedt":"2013-06-14","trtdur":83,"avgdd":54,"cumdose":4482,"age":67,"agegr1":"65-80","agegr1n":2,"ageu":"YEARS","race":"WHITE","racen":1,"sex":"M","ethnic":"NOT HISPANIC OR LATINO","saffl":"Y","ittfl":"Y","efffl":"Y","comp8fl":"Y","comp16fl":"N","comp24fl":"N","disconfl":"Y","dsraefl":"Y","dthfl":"","bmibl":27.1,"bmiblgr1":"25-<30","heightbl":170.2,"weightbl":78.5,"educlvl":16,"disonsdt":"2011-09-09","durdis":18.3,"durdsgr1":">=12","visit1dt":"2013-03-17","rfstdtc":"2013-03-24","rfendtc":"2013-06-14","visnumen":9,"rfendt":"2013-06-14","dcdecod":"ADVERSE EVENT","dcreascd":"Adverse Event","mmsetot":23},{"studyid":"CDISCPILOT01","usubjid":"01-701-1302","subjid":"1302","siteid":"701","sitegr1":"701","arm":"Xanomeline High Dose","trt01p":"Xanomeline High Dose","trt01pn":81,"trt01a":"Xanomeline High Dose","trt01an":81,"trtsdt":"2013-08-29","trtedt":"2013-11-05","trtdur":69,"avgdd":74,"cumdose":5103,"age":61,"agegr1":"<65","agegr1n":1,"ageu":"YEARS","race":"WHITE","racen":1,"sex":"M","ethnic":"NOT HISPANIC OR LATINO","saffl":"Y","ittfl":"Y","efffl":"Y","comp8fl":"Y","comp16fl":"N","comp24fl":"N","disconfl":"Y","dsraefl":"Y","dthfl":"","bmibl":26,"bmiblgr1":"25-<30","heightbl":177.8,"weightbl":82.1,"educlvl":15,"disonsdt":"2007-02-09","durdis":78.4,"durdsgr1":">=12","visit1dt":"2013-08-20","rfstdtc":"2013-08-29","rfendtc":"2013-11-05","visnumen":9,"rfendt":"2013-11-05","dcdecod":"ADVERSE EVENT","dcreascd":"Adverse Event","mmsetot":23},{"studyid":"CDISCPILOT01","usubjid":"01-701-1317","subjid":"1317","siteid":"701","sitegr1":"701","arm":"Xanomeline Low Dose","trt01p":"Xanomeline Low Dose","trt01pn":54,"trt01a":"Xanomeline Low Dose","trt01an":54,"trtsdt":"2014-05-22","trtedt":"2014-11-20","trtdur":183,"avgdd":54,"cumdose":9882,"age":68,"agegr1":"65-80","agegr1n":2,"ageu":"YEARS","race":"WHITE","racen":1,"sex":"M","ethnic":"NOT HISPANIC OR LATINO","saffl":"Y","ittfl":"Y","efffl":"Y","comp8fl":"Y","comp16fl":"Y","comp24fl":"Y","disconfl":"","dsraefl":"","dthfl":"","bmibl":21.4,"bmiblgr1":"<25","heightbl":176.5,"weightbl":66.7,"educlvl":20,"disonsdt":"2013-09-16","durdis":7.8,"durdsgr1":"<12","visit1dt":"2014-05-10","rfstdtc":"2014-05-22","rfendtc":"2014-11-20","visnumen":12,"rfendt":"2014-11-20","dcdecod":"COMPLETED","dcreascd":"Completed","mmsetot":20},{"studyid":"CDISCPILOT01","usubjid":"01-701-1324","subjid":"1324","siteid":"701","sitegr1":"701","arm":"Xanomeline Low Dose","trt01p":"Xanomeline Low Dose","trt01pn":54,"trt01a":"Xanomeline Low Dose","trt01an":54,"trtsdt":"2012-10-02","trtedt":"2013-04-02","trtdur":183,"avgdd":54,"cumdose":9882,"age":79,"agegr1":"65-80","agegr1n":2,"ageu":"YEARS","race":"WHITE","racen":1,"sex":"M","ethnic":"NOT HISPANIC OR LATINO","saffl":"Y","ittfl":"Y","efffl":"Y","comp8fl":"Y","comp16fl":"Y","comp24fl":"Y","disconfl":"","dsraefl":"","dthfl":"","bmibl":27.8,"bmiblgr1":"25-<30","heightbl":166.4,"weightbl":77.1,"educlvl":18,"disonsdt":"2009-10-11","durdis":35.2,"durdsgr1":">=12","visit1dt":"2012-09-16","rfstdtc":"2012-10-02","rfendtc":"2013-04-02","visnumen":12,"rfendt":"2013-04-02","dcdecod":"COMPLETED","dcreascd":"Completed","mmsetot":23},{"studyid":"CDISCPILOT01","usubjid":"01-701-1341","subjid":"1341","siteid":"701","sitegr1":"701","arm":"Xanomeline Low Dose","trt01p":"Xanomeline Low Dose","trt01pn":54,"trt01a":"Xanomeline Low Dose","trt01an":54,"trtsdt":"2013-01-05","trtedt":"2013-01-26","trtdur":22,"avgdd":54,"cumdose":1188,"age":51,"agegr1":"<65","agegr1n":1,"ageu":"YEARS","race":"WHITE","racen":1,"sex":"M","ethnic":"NOT HISPANIC OR LATINO","saffl":"Y","ittfl":"Y","efffl":"Y","comp8fl":"N","comp16fl":"N","comp24fl":"N","disconfl":"Y","dsraefl":"Y","dthfl":"","bmibl":28.5,"bmiblgr1":"25-<30","heightbl":157.5,"weightbl":70.8,"educlvl":24,"disonsdt":"2006-06-05","durdis":78.6,"durdsgr1":">=12","visit1dt":"2012-12-22","rfstdtc":"2013-01-05","rfendtc":"2013-02-07","visnumen":5,"rfendt":"2013-02-07","dcdecod":"ADVERSE EVENT","dcreascd":"Adverse Event","mmsetot":23},{"studyid":"CDISCPILOT01","usubjid":"01-701-1345","subjid":"1345","siteid":"701","sitegr1":"701","arm":"Placebo","trt01p":"Placebo","trt01pn":0,"trt01a":"Placebo","trt01an":0,"trtsdt":"2013-10-08","trtedt":"2014-03-18","trtdur":162,"avgdd":0,"cumdose":0,"age":63,"agegr1":"<65","agegr1n":1,"ageu":"YEARS","race":"WHITE","racen":1,"sex":"F","ethnic":"NOT HISPANIC OR LATINO","saffl":"Y","ittfl":"Y","efffl":"Y","comp8fl":"Y","comp16fl":"Y","comp24fl":"Y","disconfl":"Y","dsraefl":"","dthfl":"","bmibl":18.6,"bmiblgr1":"<25","heightbl":174,"weightbl":56.3,"educlvl":15,"disonsdt":"2010-11-05","durdis":34.9,"durdsgr1":">=12","visit1dt":"2013-10-01","rfstdtc":"2013-10-08","rfendtc":"2014-03-18","visnumen":12,"rfendt":"2014-03-18","dcdecod":"STUDY TERMINATED BY SPONSOR","dcreascd":"Sponsor Decision","mmsetot":23},{"studyid":"CDISCPILOT01","usubjid":"01-701-1360","subjid":"1360","siteid":"701","sitegr1":"701","arm":"Xanomeline High Dose","trt01p":"Xanomeline High Dose","trt01pn":81,"trt01a":"Xanomeline High Dose","trt01an":81,"trtsdt":"2013-07-31","trtedt":"2013-08-05","trtdur":6,"avgdd":54,"cumdose":324,"age":67,"agegr1":"65-80","agegr1n":2,"ageu":"YEARS","race":"WHITE","racen":1,"sex":"M","ethnic":"NOT HISPANIC OR LATINO","saffl":"Y","ittfl":"Y","efffl":"Y","comp8fl":"N","comp16fl":"N","comp24fl":"N","disconfl":"Y","dsraefl":"","dthfl":"","bmibl":29,"bmiblgr1":"25-<30","heightbl":166.4,"weightbl":80.3,"educlvl":10,"disonsdt":"2008-12-02","durdis":55.7,"durdsgr1":">=12","visit1dt":"2013-07-24","rfstdtc":"2013-07-31","rfendtc":"2013-08-14","visnumen":4,"rfendt":"2013-08-14","dcdecod":"PHYSICIAN DECISION","dcreascd":"Physician Decision","mmsetot":23},{"studyid":"CDISCPILOT01","usubjid":"01-701-1363","subjid":"1363","siteid":"701","sitegr1":"701","arm":"Placebo","trt01p":"Placebo","trt01pn":0,"trt01a":"Placebo","trt01an":0,"trtsdt":"2013-05-30","trtedt":"2013-11-27","trtdur":182,"avgdd":0,"cumdose":0,"age":81,"agegr1":">80","agegr1n":3,"ageu":"YEARS","race":"BLACK OR AFRICAN AMERICAN","racen":2,"sex":"F","ethnic":"NOT HISPANIC OR LATINO","saffl":"Y","ittfl":"Y","efffl":"Y","comp8fl":"Y","comp16fl":"Y","comp24fl":"Y","disconfl":"","dsraefl":"","dthfl":"","bmibl":24.9,"bmiblgr1":"<25","heightbl":161.3,"weightbl":64.9,"educlvl":13,"disonsdt":"2005-10-20","durdis":91,"durdsgr1":">=12","visit1dt":"2013-05-20","rfstdtc":"2013-05-30","rfendtc":"2013-11-27","visnumen":12,"rfendt":"2013-11-27","dcdecod":"COMPLETED","dcreascd":"Completed","mmsetot":22},{"studyid":"CDISCPILOT01","usubjid":"01-701-1383","subjid":"1383","siteid":"701","sitegr1":"701","arm":"Xanomeline High Dose","trt01p":"Xanomeline High Dose","trt01pn":81,"trt01a":"Xanomeline High Dose","trt01an":81,"trtsdt":"2013-02-04","trtedt":"2013-08-06","trtdur":184,"avgdd":77.6,"cumdose":14283,"age":72,"agegr1":"65-80","agegr1n":2,"ageu":"YEARS","race":"WHITE","racen":1,"sex":"F","ethnic":"NOT HISPANIC OR LATINO","saffl":"Y","ittfl":"Y","efffl":"Y","comp8fl":"Y","comp16fl":"Y","comp24fl":"Y","disconfl":"","dsraefl":"","dthfl":"","bmibl":31.6,"bmiblgr1":">=30","heightbl":163.8,"weightbl":84.8,"educlvl":12,"disonsdt":"2006-08-20","durdis":77.1,"durdsgr1":">=12","visit1dt":"2013-01-22","rfstdtc":"2013-02-04","rfendtc":"2013-08-06","visnumen":12,"rfendt":"2013-08-06","dcdecod":"COMPLETED","dcreascd":"Completed","mmsetot":22},{"studyid":"CDISCPILOT01","usubjid":"01-701-1387","subjid":"1387","siteid":"701","sitegr1":"701","arm":"Placebo","trt01p":"Placebo","trt01pn":0,"trt01a":"Placebo","trt01an":0,"trtsdt":"2014-03-12","trtedt":"2014-03-25","trtdur":14,"avgdd":0,"cumdose":0,"age":87,"agegr1":">80","agegr1n":3,"ageu":"YEARS","race":"WHITE","racen":1,"sex":"F","ethnic":"NOT HISPANIC OR LATINO","saffl":"Y","ittfl":"Y","efffl":"Y","comp8fl":"N","comp16fl":"N","comp24fl":"N","disconfl":"Y","dsraefl":"","dthfl":"","bmibl":22.5,"bmiblgr1":"<25","heightbl":162.6,"weightbl":59.4,"educlvl":12,"disonsdt":"2003-08-17","durdis":126.3,"durdsgr1":">=12","visit1dt":"2014-02-23","rfstdtc":"2014-03-12","rfendtc":"2014-03-25","visnumen":4,"rfendt":"2014-03-25","dcdecod":"PROTOCOL VIOLATION","dcreascd":"Protocol Violation","mmsetot":11},{"studyid":"CDISCPILOT01","usubjid":"01-701-1392","subjid":"1392","siteid":"701","sitegr1":"701","arm":"Placebo","trt01p":"Placebo","trt01pn":0,"trt01a":"Placebo","trt01an":0,"trtsdt":"2012-10-28","trtedt":"2013-04-28","trtdur":183,"avgdd":0,"cumdose":0,"age":78,"agegr1":"65-80","agegr1n":2,"ageu":"YEARS","race":"WHITE","racen":1,"sex":"M","ethnic":"NOT HISPANIC OR LATINO","saffl":"Y","ittfl":"Y","efffl":"Y","comp8fl":"Y","comp16fl":"Y","comp24fl":"Y","disconfl":"","dsraefl":"","dthfl":"","bmibl":28.9,"bmiblgr1":"25-<30","heightbl":167.6,"weightbl":81.2,"educlvl":16,"disonsdt":"2010-04-25","durdis":29.8,"durdsgr1":">=12","visit1dt":"2012-10-17","rfstdtc":"2012-10-28","rfendtc":"2013-04-28","visnumen":12,"rfendt":"2013-04-28","dcdecod":"COMPLETED","dcreascd":"Completed","mmsetot":23},{"studyid":"CDISCPILOT01","usubjid":"01-701-1415","subjid":"1415","siteid":"701","sitegr1":"701","arm":"Placebo","trt01p":"Placebo","trt01pn":0,"trt01a":"Placebo","trt01an":0,"trtsdt":"2013-09-23","trtedt":"2014-03-24","trtdur":183,"avgdd":0,"cumdose":0,"age":85,"agegr1":">80","agegr1n":3,"ageu":"YEARS","race":"WHITE","racen":1,"sex":"M","ethnic":"NOT HISPANIC OR LATINO","saffl":"Y","ittfl":"Y","efffl":"Y","comp8fl":"Y","comp16fl":"Y","comp24fl":"Y","disconfl":"","dsraefl":"","dthfl":"","bmibl":25,"bmiblgr1":"25-<30","heightbl":175.3,"weightbl":76.7,"educlvl":10,"disonsdt":"1998-06-13","durdis":183.1,"durdsgr1":">=12","visit1dt":"2013-09-15","rfstdtc":"2013-09-23","rfendtc":"2014-03-24","visnumen":12,"rfendt":"2014-03-24","dcdecod":"COMPLETED","dcreascd":"Completed","mmsetot":18},{"studyid":"CDISCPILOT01","usubjid":"01-701-1429","subjid":"1429","siteid":"701","sitegr1":"701","arm":"Xanomeline Low Dose","trt01p":"Xanomeline Low Dose","trt01pn":54,"trt01a":"Xanomeline Low Dose","trt01an":54,"trtsdt":"2013-03-19","trtedt":"2013-04-30","trtdur":43,"avgdd":54,"cumdose":2322,"age":84,"agegr1":">80","agegr1n":3,"ageu":"YEARS","race":"WHITE","racen":1,"sex":"F","ethnic":"NOT HISPANIC OR LATINO","saffl":"Y","ittfl":"Y","efffl":"Y","comp8fl":"N","comp16fl":"N","comp24fl":"N","disconfl":"Y","dsraefl":"","dthfl":"","bmibl":25.7,"bmiblgr1":"25-<30","heightbl":148.6,"weightbl":56.7,"educlvl":12,"disonsdt":"2008-06-17","durdis":56.3,"durdsgr1":">=12","visit1dt":"2013-02-25","rfstdtc":"2013-03-19","rfendtc":"2013-04-30","visnumen":7,"rfendt":"2013-04-30","dcdecod":"WITHDRAWAL BY SUBJECT","dcreascd":"Withdrew Consent","mmsetot":17},{"studyid":"CDISCPILOT01","usubjid":"01-701-1440","subjid":"1440","siteid":"701","sitegr1":"701","arm":"Placebo","trt01p":"Placebo","trt01pn":0,"trt01a":"Placebo","trt01an":0,"trtsdt":"2013-08-08","trtedt":"2014-02-05","trtdur":182,"avgdd":0,"cumdose":0,"age":70,"agegr1":"65-80","agegr1n":2,"ageu":"YEARS","race":"WHITE","racen":1,"sex":"M","ethnic":"NOT HISPANIC OR LATINO","saffl":"Y","ittfl":"Y","efffl":"Y","comp8fl":"Y","comp16fl":"Y","comp24fl":"Y","disconfl":"","dsraefl":"","dthfl":"","bmibl":20.2,"bmiblgr1":"<25","heightbl":156.2,"weightbl":49.4,"educlvl":18,"disonsdt":"2011-04-07","durdis":27.6,"durdsgr1":">=12","visit1dt":"2013-07-24","rfstdtc":"2013-08-08","rfendtc":"2014-02-05","visnumen":12,"rfendt":"2014-02-05","dcdecod":"COMPLETED","dcreascd":"Completed","mmsetot":22},{"studyid":"CDISCPILOT01","usubjid":"01-701-1442","subjid":"1442","siteid":"701","sitegr1":"701","arm":"Xanomeline Low Dose","trt01p":"Xanomeline Low Dose","trt01pn":54,"trt01a":"Xanomeline Low Dose","trt01an":54,"trtsdt":"2013-10-26","trtedt":"2014-04-26","trtdur":183,"avgdd":54,"cumdose":9882,"age":57,"agegr1":"<65","agegr1n":1,"ageu":"YEARS","race":"BLACK OR AFRICAN AMERICAN","racen":2,"sex":"F","ethnic":"NOT HISPANIC OR LATINO","saffl":"Y","ittfl":"Y","efffl":"Y","comp8fl":"Y","comp16fl":"Y","comp24fl":"Y","disconfl":"","dsraefl":"","dthfl":"","bmibl":40.1,"bmiblgr1":">=30","heightbl":162.6,"weightbl":106.1,"educlvl":12,"disonsdt":"2006-02-20","durdis":91.9,"durdsgr1":">=12","visit1dt":"2013-10-17","rfstdtc":"2013-10-26","rfendtc":"2014-04-26","visnumen":12,"rfendt":"2014-04-26","dcdecod":"COMPLETED","dcreascd":"Completed","mmsetot":15},{"studyid":"CDISCPILOT01","usubjid":"01-701-1444","subjid":"1444","siteid":"701","sitegr1":"701","arm":"Xanomeline High Dose","trt01p":"Xanomeline High Dose","trt01pn":81,"trt01a":"Xanomeline High Dose","trt01an":81,"trtsdt":"2013-01-05","trtedt":"2013-02-12","trtdur":39,"avgdd":71.3,"cumdose":2781,"age":63,"agegr1":"<65","agegr1n":1,"ageu":"YEARS","race":"WHITE","racen":1,"sex":"M","ethnic":"HISPANIC OR LATINO","saffl":"Y","ittfl":"Y","efffl":"Y","comp8fl":"N","comp16fl":"N","comp24fl":"N","disconfl":"Y","dsraefl":"Y","dthfl":"","bmibl":34.5,"bmiblgr1":">=30","heightbl":171.5,"weightbl":101.6,"educlvl":14,"disonsdt":"2008-05-21","durdis":55.4,"durdsgr1":">=12","visit1dt":"2012-12-31","rfstdtc":"2013-01-05","rfendtc":"2013-02-13","visnumen":7,"rfendt":"2013-02-13","dcdecod":"ADVERSE EVENT","dcreascd":"Adverse Event","mmsetot":23},{"studyid":"CDISCPILOT01","usubjid":"01-702-1082","subjid":"1082","siteid":"702","sitegr1":"900","arm":"Xanomeline Low Dose","trt01p":"Xanomeline Low Dose","trt01pn":54,"trt01a":"Xanomeline Low Dose","trt01an":54,"trtsdt":"2013-07-26","trtedt":"2013-10-13","trtdur":80,"avgdd":54,"cumdose":4320,"age":84,"agegr1":">80","agegr1n":3,"ageu":"YEARS","race":"WHITE","racen":1,"sex":"F","ethnic":"NOT HISPANIC OR LATINO","saffl":"Y","ittfl":"Y","efffl":"Y","comp8fl":"Y","comp16fl":"N","comp24fl":"N","disconfl":"Y","dsraefl":"","dthfl":"","bmiblgr1":"<25","heightbl":154.9,"educlvl":18,"disonsdt":"2007-05-17","durdis":73.6,"durdsgr1":">=12","visit1dt":"2013-07-03","rfstdtc":"2013-07-26","rfendtc":"2013-11-17","visnumen":9,"rfendt":"2013-11-17","dcdecod":"WITHDRAWAL BY SUBJECT","dcreascd":"Withdrew Consent","mmsetot":23},{"studyid":"CDISCPILOT01","usubjid":"01-703-1042","subjid":"1042","siteid":"703","sitegr1":"703","arm":"Placebo","trt01p":"Placebo","trt01pn":0,"trt01a":"Placebo","trt01an":0,"trtsdt":"2013-03-02","trtedt":"2013-08-31","trtdur":183,"avgdd":0,"cumdose":0,"age":64,"agegr1":"<65","agegr1n":1,"ageu":"YEARS","race":"WHITE","racen":1,"sex":"M","ethnic":"NOT HISPANIC OR LATINO","saffl":"Y","ittfl":"Y","efffl":"Y","comp8fl":"Y","comp16fl":"Y","comp24fl":"Y","disconfl":"","dsraefl":"","dthfl":"","bmibl":23.5,"bmiblgr1":"<25","heightbl":177.8,"weightbl":74.4,"educlvl":12,"disonsdt":"2008-07-23","durdis":55.1,"durdsgr1":">=12","visit1dt":"2013-02-23","rfstdtc":"2013-03-02","rfendtc":"2013-08-31","visnumen":12,"rfendt":"2013-08-31","dcdecod":"COMPLETED","dcreascd":"Completed","mmsetot":23},{"studyid":"CDISCPILOT01","usubjid":"01-703-1076","subjid":"1076","siteid":"703","sitegr1":"703","arm":"Xanomeline High Dose","trt01p":"Xanomeline High Dose","trt01pn":81,"trt01a":"Xanomeline High Dose","trt01an":81,"trtsdt":"2013-10-25","trtedt":"2013-12-24","trtdur":61,"avgdd":75.2,"cumdose":4590,"age":69,"agegr1":"65-80","agegr1n":2,"ageu":"YEARS","race":"WHITE","racen":1,"sex":"M","ethnic":"NOT HISPANIC OR LATINO","saffl":"Y","ittfl":"Y","efffl":"Y","comp8fl":"Y","comp16fl":"N","comp24fl":"N","disconfl":"Y","dsraefl":"Y","dthfl":"","bmibl":32,"bmiblgr1":">=30","heightbl":165.1,"weightbl":87.1,"educlvl":10,"disonsdt":"2012-08-27","durdis":13.7,"durdsgr1":">=12","visit1dt":"2013-10-17","rfstdtc":"2013-10-25","rfendtc":"2013-12-24","visnumen":9,"rfendt":"2013-12-24","dcdecod":"ADVERSE EVENT","dcreascd":"Adverse Event","mmsetot":23},{"studyid":"CDISCPILOT01","usubjid":"01-703-1086","subjid":"1086","siteid":"703","sitegr1":"703","arm":"Xanomeline Low Dose","trt01p":"Xanomeline Low Dose","trt01pn":54,"trt01a":"Xanomeline Low Dose","trt01an":54,"trtsdt":"2012-09-02","trtedt":"2012-12-04","trtdur":94,"avgdd":54,"cumdose":5076,"age":71,"agegr1":"65-80","agegr1n":2,"ageu":"YEARS","race":"WHITE","racen":1,"sex":"M","ethnic":"NOT HISPANIC OR LATINO","saffl":"Y","ittfl":"Y","efffl":"Y","comp8fl":"Y","comp16fl":"Y","comp24fl":"N","disconfl":"Y","dsraefl":"Y","dthfl":"","bmibl":25,"bmiblgr1":"25-<30","heightbl":195.6,"weightbl":95.7,"educlvl":17,"disonsdt":"2011-04-27","durdis":15.9,"durdsgr1":">=12","visit1dt":"2012-08-22","rfstdtc":"2012-09-02","rfendtc":"2012-12-24","visnumen":10,"rfendt":"2012-12-24","dcdecod":"ADVERSE EVENT","dcreascd":"Adverse Event","mmsetot":17},{"studyid":"CDISCPILOT01","usubjid":"01-703-1096","subjid":"1096","siteid":"703","sitegr1":"703","arm":"Placebo","trt01p":"Placebo","trt01pn":0,"trt01a":"Placebo","trt01an":0,"trtsdt":"2013-01-25","trtedt":"2013-03-16","trtdur":51,"avgdd":0,"cumdose":0,"age":81,"agegr1":">80","agegr1n":3,"ageu":"YEARS","race":"WHITE","racen":1,"sex":"F","ethnic":"NOT HISPANIC OR LATINO","saffl":"Y","ittfl":"Y","efffl":"N","comp8fl":"N","comp16fl":"N","comp24fl":"N","disconfl":"Y","dsraefl":"","dthfl":"","bmibl":31.7,"bmiblgr1":">=30","heightbl":160,"weightbl":81.2,"educlvl":6,"disonsdt":"2006-12-20","durdis":72,"durdsgr1":">=12","visit1dt":"2012-12-19","rfstdtc":"2013-01-25","rfendtc":"2013-03-29","visnumen":7,"rfendt":"2013-03-29","dcdecod":"LOST TO FOLLOW-UP","dcreascd":"Lost to Follow-up","mmsetot":22},{"studyid":"CDISCPILOT01","usubjid":"01-703-1100","subjid":"1100","siteid":"703","sitegr1":"703","arm":"Placebo","trt01p":"Placebo","trt01pn":0,"trt01a":"Placebo","trt01an":0,"trtsdt":"2013-03-13","trtedt":"2013-09-14","trtdur":186,"avgdd":0,"cumdose":0,"age":84,"agegr1":">80","agegr1n":3,"ageu":"YEARS","race":"WHITE","racen":1,"sex":"F","ethnic":"NOT HISPANIC OR LATINO","saffl":"Y","ittfl":"Y","efffl":"Y","comp8fl":"Y","comp16fl":"Y","comp24fl":"Y","disconfl":"","dsraefl":"","dthfl":"","bmibl":21.8,"bmiblgr1":"<25","heightbl":167.6,"weightbl":61.2,"educlvl":8,"disonsdt":"2010-12-02","durdis":26.9,"durdsgr1":">=12","visit1dt":"2013-02-28","rfstdtc":"2013-03-13","rfendtc":"2013-09-14","visnumen":12,"rfendt":"2013-09-14","dcdecod":"COMPLETED","dcreascd":"Completed","mmsetot":22},{"studyid":"CDISCPILOT01","usubjid":"01-703-1119","subjid":"1119","siteid":"703","sitegr1":"703","arm":"Xanomeline Low Dose","trt01p":"Xanomeline Low Dose","trt01pn":54,"trt01a":"Xanomeline Low Dose","trt01an":54,"trtsdt":"2013-02-20","trtedt":"2013-06-13","trtdur":114,"avgdd":54,"cumdose":6156,"age":81,"agegr1":">80","agegr1n":3,"ageu":"YEARS","race":"WHITE","racen":1,"sex":"F","ethnic":"NOT HISPANIC OR LATINO","saffl":"Y","ittfl":"Y","efffl":"Y","comp8fl":"Y","comp16fl":"Y","comp24fl":"N","disconfl":"Y","dsraefl":"Y","dthfl":"","bmibl":18.4,"bmiblgr1":"<25","heightbl":160,"weightbl":47.2,"educlvl":16,"disonsdt":"2005-02-01","durdis":96.1,"durdsgr1":">=12","visit1dt":"2013-02-02","rfstdtc":"2013-02-20","rfendtc":"2013-06-13","visnumen":10,"rfendt":"2013-06-13","dcdecod":"ADVERSE EVENT","dcreascd":"Adverse Event","mmsetot":14},{"studyid":"CDISCPILOT01","usubjid":"01-703-1175","subjid":"1175","siteid":"703","sitegr1":"703","arm":"Placebo","trt01p":"Placebo","trt01pn":0,"trt01a":"Placebo","trt01an":0,"trtsdt":"2013-12-20","trtedt":"2013-12-26","trtdur":7,"avgdd":0,"cumdose":0,"age":75,"agegr1":"65-80","agegr1n":2,"ageu":"YEARS","race":"WHITE","racen":1,"sex":"M","ethnic":"NOT HISPANIC OR LATINO","saffl":"Y","ittfl":"Y","efffl":"Y","comp8fl":"N","comp16fl":"N","comp24fl":"N","disconfl":"Y","dsraefl":"","dthfl":"","bmibl":26.6,"bmiblgr1":"25-<30","heightbl":170.2,"weightbl":77.1,"educlvl":16,"disonsdt":"2010-09-19","durdis":38.8,"durdsgr1":">=12","visit1dt":"2013-12-13","rfstdtc":"2013-12-20","rfendtc":"2013-12-31","visnumen":4,"rfendt":"2013-12-31","dcdecod":"PROTOCOL VIOLATION","dcreascd":"I/E Not Met","mmsetot":11},{"studyid":"CDISCPILOT01","usubjid":"01-703-1182","subjid":"1182","siteid":"703","sitegr1":"703","arm":"Xanomeline Low Dose","trt01p":"Xanomeline Low Dose","trt01pn":54,"trt01a":"Xanomeline Low Dose","trt01an":54,"trtsdt":"2013-10-17","trtedt":"2013-12-11","trtdur":56,"avgdd":54,"cumdose":3024,"age":84,"agegr1":">80","agegr1n":3,"ageu":"YEARS","race":"WHITE","racen":1,"sex":"M","ethnic":"NOT HISPANIC OR LATINO","saffl":"Y","ittfl":"Y","efffl":"Y","comp8fl":"Y","comp16fl":"N","comp24fl":"N","disconfl":"Y","dsraefl":"Y","dthfl":"","bmibl":22.8,"bmiblgr1":"<25","heightbl":172.7,"weightbl":68,"educlvl":12,"disonsdt":"2011-09-27","durdis":24.4,"durdsgr1":">=12","visit1dt":"2013-10-08","rfstdtc":"2013-10-17","rfendtc":"2013-12-12","visnumen":8,"rfendt":"2013-12-12","dcdecod":"ADVERSE EVENT","dcreascd":"Adverse Event","mmsetot":22},{"studyid":"CDISCPILOT01","usubjid":"01-703-1197","subjid":"1197","siteid":"703","sitegr1":"703","arm":"Xanomeline Low Dose","trt01p":"Xanomeline Low Dose","trt01pn":54,"trt01a":"Xanomeline Low Dose","trt01an":54,"trtsdt":"2013-06-16","trtedt":"2013-06-29","trtdur":14,"avgdd":54,"cumdose":756,"age":76,"agegr1":"65-80","agegr1n":2,"ageu":"YEARS","race":"BLACK OR AFRICAN AMERICAN","racen":2,"sex":"F","ethnic":"NOT HISPANIC OR LATINO","saffl":"Y","ittfl":"Y","efffl":"Y","comp8fl":"N","comp16fl":"N","comp24fl":"N","disconfl":"Y","dsraefl":"","dthfl":"","bmibl":38.6,"bmiblgr1":">=30","heightbl":162.6,"weightbl":102.1,"educlvl":5,"disonsdt":"2012-01-11","durdis":16.7,"durdsgr1":">=12","visit1dt":"2013-06-01","rfstdtc":"2013-06-16","rfendtc":"2013-07-22","visnumen":4,"rfendt":"2013-07-22","dcdecod":"WITHDRAWAL BY SUBJECT","dcreascd":"Withdrew Consent","mmsetot":12},{"studyid":"CDISCPILOT01","usubjid":"01-703-1210","subjid":"1210","siteid":"703","sitegr1":"703","arm":"Placebo","trt01p":"Placebo","trt01pn":0,"trt01a":"Placebo","trt01an":0,"trtsdt":"2013-03-16","trtedt":"2013-09-06","trtdur":175,"avgdd":0,"cumdose":0,"age":72,"agegr1":"65-80","agegr1n":2,"ageu":"YEARS","race":"WHITE","racen":1,"sex":"F","ethnic":"NOT HISPANIC OR LATINO","saffl":"Y","ittfl":"Y","efffl":"Y","comp8fl":"Y","comp16fl":"Y","comp24fl":"Y","disconfl":"","dsraefl":"","dthfl":"","bmibl":23.8,"bmiblgr1":"<25","heightbl":144.8,"weightbl":49.9,"educlvl":12,"disonsdt":"2010-02-18","durdis":36.6,"durdsgr1":">=12","visit1dt":"2013-03-08","rfstdtc":"2013-03-16","rfendtc":"2013-09-06","visnumen":12,"rfendt":"2013-09-06","dcdecod":"COMPLETED","dcreascd":"Completed","mmsetot":19},{"studyid":"CDISCPILOT01","usubjid":"01-703-1258","subjid":"1258","siteid":"703","sitegr1":"703","arm":"Xanomeline High Dose","trt01p":"Xanomeline High Dose","trt01pn":81,"trt01a":"Xanomeline High Dose","trt01an":81,"trtsdt":"2012-07-20","trtedt":"2013-01-11","trtdur":176,"avgdd":77.3,"cumdose":13608,"age":78,"agegr1":"65-80","agegr1n":2,"ageu":"YEARS","race":"WHITE","racen":1,"sex":"F","ethnic":"NOT HISPANIC OR LATINO","saffl":"Y","ittfl":"Y","efffl":"Y","comp8fl":"Y","comp16fl":"Y","comp24fl":"Y","disconfl":"Y","dsraefl":"Y","dthfl":"","bmibl":24.8,"bmiblgr1":"<25","heightbl":154.9,"weightbl":59.4,"educlvl":12,"disonsdt":"2006-02-17","durdis":76.7,"durdsgr1":">=12","visit1dt":"2012-07-10","rfstdtc":"2012-07-20","rfendtc":"2013-01-21","visnumen":12,"rfendt":"2013-01-21","dcdecod":"ADVERSE EVENT","dcreascd":"Adverse Event","mmsetot":13},{"studyid":"CDISCPILOT01","usubjid":"01-703-1279","subjid":"1279","siteid":"703","sitegr1":"703","arm":"Xanomeline Low Dose","trt01p":"Xanomeline Low Dose","trt01pn":54,"trt01a":"Xanomeline Low Dose","trt01an":54,"trtsdt":"2013-05-13","trtedt":"2013-06-03","trtdur":22,"avgdd":54,"cumdose":1188,"age":72,"agegr1":"65-80","agegr1n":2,"ageu":"YEARS","race":"WHITE","racen":1,"sex":"F","ethnic":"NOT HISPANIC OR LATINO","saffl":"Y","ittfl":"Y","efffl":"N","comp8fl":"N","comp16fl":"N","comp24fl":"N","disconfl":"Y","dsraefl":"","dthfl":"","bmibl":21.1,"bmiblgr1":"<25","heightbl":162.6,"weightbl":55.8,"educlvl":12,"disonsdt":"2010-07-29","durdis":33,"durdsgr1":">=12","visit1dt":"2013-04-27","rfstdtc":"2013-05-13","rfendtc":"2013-06-22","visnumen":4,"rfendt":"2013-06-22","dcdecod":"WITHDRAWAL BY SUBJECT","dcreascd":"Withdrew Consent","mmsetot":14},{"studyid":"CDISCPILOT01","usubjid":"01-703-1295","subjid":"1295","siteid":"703","sitegr1":"703","arm":"Xanomeline High Dose","trt01p":"Xanomeline High Dose","trt01pn":81,"trt01a":"Xanomeline High Dose","trt01an":81,"trtsdt":"2013-11-21","trtedt":"2014-04-19","trtdur":150,"avgdd":78.3,"cumdose":11745,"age":88,"agegr1":">80","agegr1n":3,"ageu":"YEARS","race":"WHITE","racen":1,"sex":"F","ethnic":"NOT HISPANIC OR LATINO","saffl":"Y","ittfl":"Y","efffl":"Y","comp8fl":"Y","comp16fl":"Y","comp24fl":"N","disconfl":"Y","dsraefl":"","dthfl":"","bmibl":22.7,"bmiblgr1":"<25","heightbl":157.5,"weightbl":56.3,"educlvl":8,"disonsdt":"2012-04-05","durdis":18.7,"durdsgr1":">=12","visit1dt":"2013-10-24","rfstdtc":"2013-11-21","rfendtc":"2014-05-19","visnumen":11,"rfendt":"2014-05-19","dcdecod":"WITHDRAWAL BY SUBJECT","dcreascd":"Withdrew Consent","mmsetot":20},{"studyid":"CDISCPILOT01","usubjid":"01-703-1299","subjid":"1299","siteid":"703","sitegr1":"703","arm":"Placebo","trt01p":"Placebo","trt01pn":0,"trt01a":"Placebo","trt01an":0,"trtsdt":"2012-09-12","trtedt":"2013-03-13","trtdur":183,"avgdd":0,"cumdose":0,"age":81,"agegr1":">80","agegr1n":3,"ageu":"YEARS","race":"WHITE","racen":1,"sex":"F","ethnic":"NOT HISPANIC OR LATINO","saffl":"Y","ittfl":"Y","efffl":"Y","comp8fl":"Y","comp16fl":"Y","comp24fl":"Y","disconfl":"","dsraefl":"","dthfl":"","bmibl":19.2,"bmiblgr1":"<25","heightbl":153.7,"weightbl":45.4,"educlvl":12,"disonsdt":"2011-09-16","durdis":11.8,"durdsgr1":"<12","visit1dt":"2012-09-07","rfstdtc":"2012-09-12","rfendtc":"2013-03-13","visnumen":12,"rfendt":"2013-03-13","dcdecod":"COMPLETED","dcreascd":"Completed","mmsetot":23},{"studyid":"CDISCPILOT01","usubjid":"01-703-1335","subjid":"1335","siteid":"703","sitegr1":"703","arm":"Xanomeline High Dose","trt01p":"Xanomeline High Dose","trt01pn":81,"trt01a":"Xanomeline High Dose","trt01an":81,"trtsdt":"2014-03-17","trtedt":"2014-05-07","trtdur":52,"avgdd":73.2,"cumdose":3807,"age":67,"agegr1":"65-80","agegr1n":2,"ageu":"YEARS","race":"BLACK OR AFRICAN AMERICAN","racen":2,"sex":"F","ethnic":"NOT HISPANIC OR LATINO","saffl":"Y","ittfl":"Y","efffl":"Y","comp8fl":"N","comp16fl":"N","comp24fl":"N","disconfl":"Y","dsraefl":"","dthfl":"","bmibl":23,"bmiblgr1":"<25","heightbl":154.9,"weightbl":55.3,"educlvl":11,"disonsdt":"2008-01-30","durdis":73,"durdsgr1":">=12","visit1dt":"2014-02-28","rfstdtc":"2014-03-17","rfendtc":"2014-05-24","visnumen":7,"rfendt":"2014-05-24","dcdecod":"PROTOCOL VIOLATION","dcreascd":"Protocol Violation","mmsetot":10},{"studyid":"CDISCPILOT01","usubjid":"01-703-1379","subjid":"1379","siteid":"703","sitegr1":"703","arm":"Xanomeline Low Dose","trt01p":"Xanomeline Low Dose","trt01pn":54,"trt01a":"Xanomeline Low Dose","trt01an":54,"trtsdt":"2013-09-22","trtedt":"2014-03-21","trtdur":181,"avgdd":54,"cumdose":9774,"age":81,"agegr1":">80","agegr1n":3,"ageu":"YEARS","race":"BLACK OR AFRICAN AMERICAN","racen":2,"sex":"F","ethnic":"NOT HISPANIC OR LATINO","saffl":"Y","ittfl":"Y","efffl":"Y","comp8fl":"Y","comp16fl":"Y","comp24fl":"Y","disconfl":"","dsraefl":"","dthfl":"","bmibl":30.7,"bmiblgr1":">=30","heightbl":157.5,"weightbl":76.2,"educlvl":7,"disonsdt":"2009-09-21","durdis":47.7,"durdsgr1":">=12","visit1dt":"2013-09-12","rfstdtc":"2013-09-22","rfendtc":"2014-03-21","visnumen":12,"rfendt":"2014-03-21","dcdecod":"COMPLETED","dcreascd":"Completed","mmsetot":12},{"studyid":"CDISCPILOT01","usubjid":"01-703-1403","subjid":"1403","siteid":"703","sitegr1":"703","arm":"Xanomeline High Dose","trt01p":"Xanomeline High Dose","trt01pn":81,"trt01a":"Xanomeline High Dose","trt01an":81,"trtsdt":"2012-12-12","trtedt":"2012-12-13","trtdur":2,"avgdd":54,"cumdose":108,"age":67,"agegr1":"65-80","agegr1n":2,"ageu":"YEARS","race":"WHITE","racen":1,"sex":"M","ethnic":"NOT HISPANIC OR LATINO","saffl":"Y","ittfl":"Y","efffl":"N","comp8fl":"N","comp16fl":"N","comp24fl":"N","disconfl":"Y","dsraefl":"Y","dthfl":"","bmibl":25.4,"bmiblgr1":"25-<30","heightbl":177.8,"weightbl":80.3,"educlvl":12,"disonsdt":"2010-12-07","durdis":24,"durdsgr1":">=12","visit1dt":"2012-12-05","rfstdtc":"2012-12-12","rfendtc":"2012-12-19","visnumen":4,"rfendt":"2012-12-19","dcdecod":"ADVERSE EVENT","dcreascd":"Adverse Event","mmsetot":23},{"studyid":"CDISCPILOT01","usubjid":"01-703-1439","subjid":"1439","siteid":"703","sitegr1":"703","arm":"Xanomeline High Dose","trt01p":"Xanomeline High Dose","trt01pn":81,"trt01a":"Xanomeline High Dose","trt01an":81,"trtsdt":"2014-03-12","trtedt":"2014-09-11","trtdur":184,"avgdd":76.7,"cumdose":14121,"age":76,"agegr1":"65-80","agegr1n":2,"ageu":"YEARS","race":"WHITE","racen":1,"sex":"F","ethnic":"NOT HISPANIC OR LATINO","saffl":"Y","ittfl":"Y","efffl":"Y","comp8fl":"Y","comp16fl":"Y","comp24fl":"Y","disconfl":"","dsraefl":"","dthfl":"","bmibl":24.8,"bmiblgr1":"<25","heightbl":160,"weightbl":63.5,"educlvl":12,"disonsdt":"2010-07-29","durdis":43.2,"durdsgr1":">=12","visit1dt":"2014-03-04","rfstdtc":"2014-03-12","rfendtc":"2014-09-11","visnumen":12,"rfendt":"2014-09-11","dcdecod":"COMPLETED","dcreascd":"Completed","mmsetot":16},{"studyid":"CDISCPILOT01","usubjid":"01-704-1008","subjid":"1008","siteid":"704","sitegr1":"704","arm":"Xanomeline High Dose","trt01p":"Xanomeline High Dose","trt01pn":81,"trt01a":"Xanomeline High Dose","trt01an":81,"trtsdt":"2013-01-13","trtedt":"2013-02-21","trtdur":40,"avgdd":70.2,"cumdose":2808,"age":76,"agegr1":"65-80","agegr1n":2,"ageu":"YEARS","race":"WHITE","racen":1,"sex":"F","ethnic":"NOT HISPANIC OR LATINO","saffl":"Y","ittfl":"Y","efffl":"Y","comp8fl":"N","comp16fl":"N","comp24fl":"N","disconfl":"Y","dsraefl":"Y","dthfl":"","bmibl":21.3,"bmiblgr1":"<25","heightbl":148,"weightbl":46.7,"educlvl":12,"disonsdt":"2011-10-17","durdis":14.7,"durdsgr1":">=12","visit1dt":"2013-01-06","rfstdtc":"2013-01-13","rfendtc":"2013-02-25","visnumen":7,"rfendt":"2013-02-25","dcdecod":"ADVERSE EVENT","dcreascd":"Adverse Event","mmsetot":21},{"studyid":"CDISCPILOT01","usubjid":"01-704-1009","subjid":"1009","siteid":"704","sitegr1":"704","arm":"Xanomeline Low Dose","trt01p":"Xanomeline Low Dose","trt01pn":54,"trt01a":"Xanomeline Low Dose","trt01an":54,"trtsdt":"2013-08-27","trtedt":"2013-09-25","trtdur":30,"avgdd":54,"cumdose":1620,"age":83,"agegr1":">80","agegr1n":3,"ageu":"YEARS","race":"WHITE","racen":1,"sex":"M","ethnic":"NOT HISPANIC OR LATINO","saffl":"Y","ittfl":"Y","efffl":"Y","comp8fl":"N","comp16fl":"N","comp24fl":"N","disconfl":"Y","dsraefl":"","dthfl":"","bmibl":20.8,"bmiblgr1":"<25","heightbl":179.1,"weightbl":66.7,"educlvl":16,"disonsdt":"2009-02-03","durdis":54.5,"durdsgr1":">=12","visit1dt":"2013-08-20","rfstdtc":"2013-08-27","rfendtc":"2013-10-02","visnumen":5,"rfendt":"2013-10-02","dcdecod":"WITHDRAWAL BY SUBJECT","dcreascd":"Withdrew Consent","mmsetot":21},{"studyid":"CDISCPILOT01","usubjid":"01-704-1010","subjid":"1010","siteid":"704","sitegr1":"704","arm":"Placebo","trt01p":"Placebo","trt01pn":0,"trt01a":"Placebo","trt01an":0,"trtsdt":"2014-02-21","trtedt":"2014-07-08","trtdur":138,"avgdd":0,"cumdose":0,"age":80,"agegr1":"65-80","agegr1n":2,"ageu":"YEARS","race":"WHITE","racen":1,"sex":"M","ethnic":"NOT HISPANIC OR LATINO","saffl":"Y","ittfl":"Y","efffl":"Y","comp8fl":"Y","comp16fl":"Y","comp24fl":"N","disconfl":"Y","dsraefl":"","dthfl":"","bmibl":25.6,"bmiblgr1":"25-<30","heightbl":177.8,"weightbl":81,"educlvl":14,"disonsdt":"2006-01-02","durdis":97.2,"durdsgr1":">=12","visit1dt":"2014-02-08","rfstdtc":"2014-02-21","rfendtc":"2014-07-09","visnumen":11,"rfendt":"2014-07-09","dcdecod":"WITHDRAWAL BY SUBJECT","dcreascd":"Withdrew Consent","mmsetot":17},{"studyid":"CDISCPILOT01","usubjid":"01-704-1017","subjid":"1017","siteid":"704","sitegr1":"704","arm":"Xanomeline High Dose","trt01p":"Xanomeline High Dose","trt01pn":81,"trt01a":"Xanomeline High Dose","trt01an":81,"trtsdt":"2013-10-06","trtedt":"2013-11-18","trtdur":44,"avgdd":72.4,"cumdose":3186,"age":77,"agegr1":"65-80","agegr1n":2,"ageu":"YEARS","race":"WHITE","racen":1,"sex":"M","ethnic":"NOT HISPANIC OR LATINO","saffl":"Y","ittfl":"Y","efffl":"Y","comp8fl":"N","comp16fl":"N","comp24fl":"N","disconfl":"Y","dsraefl":"Y","dthfl":"","bmibl":21.8,"bmiblgr1":"<25","heightbl":170.2,"weightbl":63.1,"educlvl":12,"disonsdt":"2011-03-27","durdis":29.9,"durdsgr1":">=12","visit1dt":"2013-09-20","rfstdtc":"2013-10-06","rfendtc":"2013-11-24","visnumen":7,"rfendt":"2013-11-24","dcdecod":"ADVERSE EVENT","dcreascd":"Adverse Event","mmsetot":21},{"studyid":"CDISCPILOT01","usubjid":"01-704-1025","subjid":"1025","siteid":"704","sitegr1":"704","arm":"Xanomeline Low Dose","trt01p":"Xanomeline Low Dose","trt01pn":54,"trt01a":"Xanomeline Low Dose","trt01an":54,"trtsdt":"2013-09-27","trtedt":"2013-10-24","trtdur":28,"avgdd":54,"cumdose":1512,"age":81,"agegr1":">80","agegr1n":3,"ageu":"YEARS","race":"WHITE","racen":1,"sex":"F","ethnic":"NOT HISPANIC OR LATINO","saffl":"Y","ittfl":"Y","efffl":"Y","comp8fl":"N","comp16fl":"N","comp24fl":"N","disconfl":"Y","dsraefl":"Y","dthfl":"","bmibl":20.1,"bmiblgr1":"<25","heightbl":166,"weightbl":55.5,"educlvl":18,"disonsdt":"2012-03-03","durdis":18.6,"durdsgr1":">=12","visit1dt":"2013-09-18","rfstdtc":"2013-09-27","rfendtc":"2013-11-29","visnumen":6,"rfendt":"2013-11-29","dcdecod":"ADVERSE EVENT","dcreascd":"Adverse Event","mmsetot":17},{"studyid":"CDISCPILOT01","usubjid":"01-704-1065","subjid":"1065","siteid":"704","sitegr1":"704","arm":"Xanomeline High Dose","trt01p":"Xanomeline High Dose","trt01pn":81,"trt01a":"Xanomeline High Dose","trt01an":81,"trtsdt":"2013-10-24","trtedt":"2013-12-22","trtdur":60,"avgdd":74.3,"cumdose":4455,"age":75,"agegr1":"65-80","agegr1n":2,"ageu":"YEARS","race":"WHITE","racen":1,"sex":"M","ethnic":"NOT HISPANIC OR LATINO","saffl":"Y","ittfl":"Y","efffl":"Y","comp8fl":"Y","comp16fl":"N","comp24fl":"N","disconfl":"Y","dsraefl":"Y","dthfl":"","bmibl":24.8,"bmiblgr1":"<25","heightbl":180.3,"weightbl":80.7,"educlvl":12,"disonsdt":"2010-03-23","durdis":42.9,"durdsgr1":">=12","visit1dt":"2013-10-17","rfstdtc":"2013-10-24","rfendtc":"2013-12-24","visnumen":9,"rfendt":"2013-12-24","dcdecod":"ADVERSE EVENT","dcreascd":"Adverse Event","mmsetot":20},{"studyid":"CDISCPILOT01","usubjid":"01-704-1074","subjid":"1074","siteid":"704","sitegr1":"704","arm":"Xanomeline High Dose","trt01p":"Xanomeline High Dose","trt01pn":81,"trt01a":"Xanomeline High Dose","trt01an":81,"trtsdt":"2014-01-22","trtedt":"2014-03-20","trtdur":58,"avgdd":72.2,"cumdose":4185,"age":80,"agegr1":"65-80","agegr1n":2,"ageu":"YEARS","race":"WHITE","racen":1,"sex":"F","ethnic":"NOT HISPANIC OR LATINO","saffl":"Y","ittfl":"Y","efffl":"Y","comp8fl":"Y","comp16fl":"N","comp24fl":"N","disconfl":"Y","dsraefl":"Y","dthfl":"","bmibl":27,"bmiblgr1":"25-<30","heightbl":167.6,"weightbl":75.8,"educlvl":16,"disonsdt":"2009-01-30","durdis":59.7,"durdsgr1":">=12","visit1dt":"2014-01-19","rfstdtc":"2014-01-22","rfendtc":"2014-03-31","visnumen":8,"rfendt":"2014-03-31","dcdecod":"ADVERSE EVENT","dcreascd":"Adverse Event","mmsetot":17},{"studyid":"CDISCPILOT01","usubjid":"01-704-1093","subjid":"1093","siteid":"704","sitegr1":"704","arm":"Xanomeline High Dose","trt01p":"Xanomeline High Dose","trt01pn":81,"trt01a":"Xanomeline High Dose","trt01an":81,"trtsdt":"2013-03-15","trtedt":"2013-06-17","trtdur":95,"avgdd":76.5,"cumdose":7263,"age":79,"agegr1":"65-80","agegr1n":2,"ageu":"YEARS","race":"WHITE","racen":1,"sex":"M","ethnic":"NOT HISPANIC OR LATINO","saffl":"Y","ittfl":"Y","efffl":"Y","comp8fl":"Y","comp16fl":"Y","comp24fl":"N","disconfl":"Y","dsraefl":"Y","dthfl":"","bmibl":24.3,"bmiblgr1":"<25","heightbl":174,"weightbl":73.5,"educlvl":12,"disonsdt":"2010-07-17","durdis":31.3,"durdsgr1":">=12","visit1dt":"2013-02-22","rfstdtc":"2013-03-15","rfendtc":"2013-06-20","visnumen":10,"rfendt":"2013-06-20","dcdecod":"ADVERSE EVENT","dcreascd":"Adverse Event","mmsetot":18},{"studyid":"CDISCPILOT01","usubjid":"01-704-1114","subjid":"1114","siteid":"704","sitegr1":"704","arm":"Xanomeline Low Dose","trt01p":"Xanomeline Low Dose","trt01pn":54,"trt01a":"Xanomeline Low Dose","trt01an":54,"trtsdt":"2013-01-23","trtedt":"2013-07-07","trtdur":166,"avgdd":54,"cumdose":8964,"age":77,"agegr1":"65-80","agegr1n":2,"ageu":"YEARS","race":"WHITE","racen":1,"sex":"M","ethnic":"NOT HISPANIC OR LATINO","saffl":"Y","ittfl":"Y","efffl":"Y","comp8fl":"Y","comp16fl":"Y","comp24fl":"Y","disconfl":"Y","dsraefl":"","dthfl":"","bmibl":28.1,"bmiblgr1":"25-<30","heightbl":166.4,"weightbl":77.8,"educlvl":8,"disonsdt":"2007-03-25","durdis":69.6,"durdsgr1":">=12","visit1dt":"2013-01-09","rfstdtc":"2013-01-23","rfendtc":"2013-07-08","visnumen":12,"rfendt":"2013-07-08","dcdecod":"WITHDRAWAL BY SUBJECT","dcreascd":"Withdrew Consent","mmsetot":20},{"studyid":"CDISCPILOT01","usubjid":"01-704-1120","subjid":"1120","siteid":"704","sitegr1":"704","arm":"Xanomeline Low Dose","trt01p":"Xanomeline Low Dose","trt01pn":54,"trt01a":"Xanomeline Low Dose","trt01an":54,"trtsdt":"2013-12-02","trtedt":"2014-02-01","trtdur":62,"avgdd":54,"cumdose":3348,"age":71,"agegr1":"65-80","agegr1n":2,"ageu":"YEARS","race":"WHITE","racen":1,"sex":"F","ethnic":"NOT HISPANIC OR LATINO","saffl":"Y","ittfl":"Y","efffl":"Y","comp8fl":"Y","comp16fl":"N","comp24fl":"N","disconfl":"Y","dsraefl":"Y","dthfl":"","bmibl":23.9,"bmiblgr1":"<25","heightbl":147,"weightbl":51.7,"educlvl":13,"disonsdt":"2007-03-23","durdis":79.9,"durdsgr1":">=12","visit1dt":"2013-11-18","rfstdtc":"2013-12-02","rfendtc":"2014-02-03","visnumen":9,"rfendt":"2014-02-03","dcdecod":"ADVERSE EVENT","dcreascd":"Adverse Event","mmsetot":16},{"studyid":"CDISCPILOT01","usubjid":"01-704-1127","subjid":"1127","siteid":"704","sitegr1":"704","arm":"Placebo","trt01p":"Placebo","trt01pn":0,"trt01a":"Placebo","trt01an":0,"trtsdt":"2013-10-02","trtedt":"2014-03-31","trtdur":181,"avgdd":0,"cumdose":0,"age":84,"agegr1":">80","agegr1n":3,"ageu":"YEARS","race":"WHITE","racen":1,"sex":"F","ethnic":"NOT HISPANIC OR LATINO","saffl":"Y","ittfl":"Y","efffl":"Y","comp8fl":"Y","comp16fl":"Y","comp24fl":"Y","disconfl":"","dsraefl":"","dthfl":"","bmibl":15.1,"bmiblgr1":"<25","heightbl":165.1,"weightbl":41.1,"educlvl":12,"disonsdt":"2008-09-11","durdis":60.2,"durdsgr1":">=12","visit1dt":"2013-09-16","rfstdtc":"2013-10-02","rfendtc":"2014-03-31","visnumen":12,"rfendt":"2014-03-31","dcdecod":"COMPLETED","dcreascd":"Completed","mmsetot":22},{"studyid":"CDISCPILOT01","usubjid":"01-704-1135","subjid":"1135","siteid":"704","sitegr1":"704","arm":"Xanomeline Low Dose","trt01p":"Xanomeline Low Dose","trt01pn":54,"trt01a":"Xanomeline Low Dose","trt01an":54,"trtsdt":"2013-10-31","trtedt":"2014-05-16","trtdur":198,"avgdd":54,"cumdose":10692,"age":74,"agegr1":"65-80","agegr1n":2,"ageu":"YEARS","race":"WHITE","racen":1,"sex":"F","ethnic":"NOT HISPANIC OR LATINO","saffl":"Y","ittfl":"Y","efffl":"Y","comp8fl":"Y","comp16fl":"Y","comp24fl":"Y","disconfl":"","dsraefl":"","dthfl":"","bmibl":24.6,"bmiblgr1":"<25","heightbl":161.8,"weightbl":64.4,"educlvl":14,"disonsdt":"2010-10-06","durdis":36.6,"durdsgr1":">=12","visit1dt":"2013-10-23","rfstdtc":"2013-10-31","rfendtc":"2014-05-16","visnumen":12,"rfendt":"2014-05-16","dcdecod":"COMPLETED","dcreascd":"Completed","mmsetot":23},{"studyid":"CDISCPILOT01","usubjid":"01-704-1164","subjid":"1164","siteid":"704","sitegr1":"704","arm":"Placebo","trt01p":"Placebo","trt01pn":0,"trt01a":"Placebo","trt01an":0,"trtsdt":"2012-09-19","trtedt":"2013-04-04","trtdur":198,"avgdd":0,"cumdose":0,"age":67,"agegr1":"65-80","agegr1n":2,"ageu":"YEARS","race":"WHITE","racen":1,"sex":"F","ethnic":"NOT HISPANIC OR LATINO","saffl":"Y","ittfl":"Y","efffl":"Y","comp8fl":"Y","comp16fl":"Y","comp24fl":"Y","disconfl":"","dsraefl":"","dthfl":"","bmibl":20.1,"bmiblgr1":"<25","heightbl":157.5,"weightbl":49.9,"educlvl":10,"disonsdt":"2011-03-04","durdis":18.3,"durdsgr1":">=12","visit1dt":"2012-09-11","rfstdtc":"2012-09-19","rfendtc":"2013-04-04","visnumen":12,"rfendt":"2013-04-04","dcdecod":"COMPLETED","dcreascd":"Completed","mmsetot":16},{"studyid":"CDISCPILOT01","usubjid":"01-704-1218","subjid":"1218","siteid":"704","sitegr1":"704","arm":"Xanomeline Low Dose","trt01p":"Xanomeline Low Dose","trt01pn":54,"trt01a":"Xanomeline Low Dose","trt01an":54,"trtsdt":"2012-11-19","trtedt":"2013-05-27","trtdur":190,"avgdd":54,"cumdose":10260,"age":81,"agegr1":">80","agegr1n":3,"ageu":"YEARS","race":"WHITE","racen":1,"sex":"F","ethnic":"NOT HISPANIC OR LATINO","saffl":"Y","ittfl":"Y","efffl":"Y","comp8fl":"Y","comp16fl":"Y","comp24fl":"Y","disconfl":"","dsraefl":"","dthfl":"","bmibl":26.2,"bmiblgr1":"25-<30","heightbl":144,"weightbl":54.4,"educlvl":12,"disonsdt":"2010-08-15","durdis":26.9,"durdsgr1":">=12","visit1dt":"2012-11-11","rfstdtc":"2012-11-19","rfendtc":"2013-05-27","visnumen":12,"rfendt":"2013-05-27","dcdecod":"COMPLETED","dcreascd":"Completed","mmsetot":22},{"studyid":"CDISCPILOT01","usubjid":"01-704-1233","subjid":"1233","siteid":"704","sitegr1":"704","arm":"Placebo","trt01p":"Placebo","trt01pn":0,"trt01a":"Placebo","trt01an":0,"trtsdt":"2013-03-21","trtedt":"2013-07-14","trtdur":116,"avgdd":0,"cumdose":0,"age":87,"agegr1":">80","agegr1n":3,"ageu":"YEARS","race":"WHITE","racen":1,"sex":"F","ethnic":"NOT HISPANIC OR LATINO","saffl":"Y","ittfl":"Y","efffl":"Y","comp8fl":"Y","comp16fl":"Y","comp24fl":"N","disconfl":"Y","dsraefl":"","dthfl":"","bmibl":21.3,"bmiblgr1":"<25","heightbl":147.3,"weightbl":46.3,"educlvl":16,"disonsdt":"2011-01-15","durdis":25.8,"durdsgr1":">=12","visit1dt":"2013-03-08","rfstdtc":"2013-03-21","rfendtc":"2013-07-14","visnumen":11,"rfendt":"2013-07-14","dcdecod":"WITHDRAWAL BY SUBJECT","dcreascd":"Withdrew Consent","mmsetot":15},{"studyid":"CDISCPILOT01","usubjid":"01-704-1241","subjid":"1241","siteid":"704","sitegr1":"704","arm":"Xanomeline High Dose","trt01p":"Xanomeline High Dose","trt01pn":81,"trt01a":"Xanomeline High Dose","trt01an":81,"trtsdt":"2013-08-25","trtedt":"2013-10-09","trtdur":46,"avgdd":74,"cumdose":3402,"age":86,"agegr1":">80","agegr1n":3,"ageu":"YEARS","race":"WHITE","racen":1,"sex":"M","ethnic":"NOT HISPANIC OR LATINO","saffl":"Y","ittfl":"Y","efffl":"Y","comp8fl":"Y","comp16fl":"N","comp24fl":"N","disconfl":"Y","dsraefl":"Y","dthfl":"","bmibl":25.2,"bmiblgr1":"25-<30","heightbl":170.2,"weightbl":73,"educlvl":14,"disonsdt":"2011-07-25","durdis":24.7,"durdsgr1":">=12","visit1dt":"2013-08-14","rfstdtc":"2013-08-25","rfendtc":"2013-10-31","visnumen":8,"rfendt":"2013-10-31","dcdecod":"ADVERSE EVENT","dcreascd":"Adverse Event","mmsetot":21},{"studyid":"CDISCPILOT01","usubjid":"01-704-1260","subjid":"1260","siteid":"704","sitegr1":"704","arm":"Placebo","trt01p":"Placebo","trt01pn":0,"trt01a":"Placebo","trt01an":0,"trtsdt":"2012-08-30","trtedt":"2012-11-04","trtdur":67,"avgdd":0,"cumdose":0,"age":71,"agegr1":"65-80","agegr1n":2,"ageu":"YEARS","race":"WHITE","racen":1,"sex":"F","ethnic":"NOT HISPANIC OR LATINO","saffl":"Y","ittfl":"Y","efffl":"Y","comp8fl":"Y","comp16fl":"N","comp24fl":"N","disconfl":"Y","dsraefl":"","dthfl":"","bmibl":19.1,"bmiblgr1":"<25","heightbl":160,"weightbl":48.8,"educlvl":16,"disonsdt":"2002-11-29","durdis":116.8,"durdsgr1":">=12","visit1dt":"2012-08-23","rfstdtc":"2012-08-30","rfendtc":"2013-01-18","visnumen":9,"rfendt":"2013-01-18","dcdecod":"WITHDRAWAL BY SUBJECT","dcreascd":"Withdrew Consent","mmsetot":16},{"studyid":"CDISCPILOT01","usubjid":"01-704-1266","subjid":"1266","siteid":"704","sitegr1":"704","arm":"Xanomeline High Dose","trt01p":"Xanomeline High Dose","trt01pn":81,"trt01a":"Xanomeline High Dose","trt01an":81,"trtsdt":"2013-10-13","trtedt":"2013-12-06","trtdur":55,"avgdd":73.6,"cumdose":4050,"age":82,"agegr1":">80","agegr1n":3,"ageu":"YEARS","race":"WHITE","racen":1,"sex":"M","ethnic":"NOT HISPANIC OR LATINO","saffl":"Y","ittfl":"Y","efffl":"Y","comp8fl":"Y","comp16fl":"N","comp24fl":"N","disconfl":"Y","dsraefl":"Y","dthfl":"","bmibl":29.2,"bmiblgr1":"25-<30","heightbl":174,"weightbl":88.5,"educlvl":12,"disonsdt":"2011-12-02","durdis":22.1,"durdsgr1":">=12","visit1dt":"2013-10-05","rfstdtc":"2013-10-13","rfendtc":"2013-12-06","visnumen":8,"rfendt":"2013-12-06","dcdecod":"ADVERSE EVENT","dcreascd":"Adverse Event","mmsetot":16},{"studyid":"CDISCPILOT01","usubjid":"01-704-1323","subjid":"1323","siteid":"704","sitegr1":"704","arm":"Xanomeline Low Dose","trt01p":"Xanomeline Low Dose","trt01pn":54,"trt01a":"Xanomeline Low Dose","trt01an":54,"trtsdt":"2013-07-08","trtedt":"2013-08-05","trtdur":29,"avgdd":54,"cumdose":1566,"age":68,"agegr1":"65-80","agegr1n":2,"ageu":"YEARS","race":"WHITE","racen":1,"sex":"F","ethnic":"NOT HISPANIC OR LATINO","saffl":"Y","ittfl":"Y","efffl":"N","comp8fl":"N","comp16fl":"N","comp24fl":"N","disconfl":"Y","dsraefl":"Y","dthfl":"","bmibl":22.7,"bmiblgr1":"<25","heightbl":162.6,"weightbl":59.9,"educlvl":16,"disonsdt":"2010-03-23","durdis":38.7,"durdsgr1":">=12","visit1dt":"2013-06-13","rfstdtc":"2013-07-08","rfendtc":"2013-08-08","visnumen":7,"rfendt":"2013-08-08","dcdecod":"ADVERSE EVENT","dcreascd":"Adverse Event","mmsetot":23},{"studyid":"CDISCPILOT01","usubjid":"01-704-1325","subjid":"1325","siteid":"704","sitegr1":"704","arm":"Xanomeline Low Dose","trt01p":"Xanomeline Low Dose","trt01pn":54,"trt01a":"Xanomeline Low Dose","trt01an":54,"trtsdt":"2014-04-23","trtedt":"2014-07-04","trtdur":73,"avgdd":54,"cumdose":3942,"age":81,"agegr1":">80","agegr1n":3,"ageu":"YEARS","race":"WHITE","racen":1,"sex":"M","ethnic":"NOT HISPANIC OR LATINO","saffl":"Y","ittfl":"Y","efffl":"Y","comp8fl":"Y","comp16fl":"Y","comp24fl":"N","disconfl":"Y","dsraefl":"","dthfl":"","bmibl":22.3,"bmiblgr1":"<25","heightbl":175.3,"weightbl":68.5,"educlvl":16,"disonsdt":"2008-11-02","durdis":65.4,"durdsgr1":">=12","visit1dt":"2014-04-16","rfstdtc":"2014-04-23","rfendtc":"2014-08-06","visnumen":10,"rfendt":"2014-08-06","dcdecod":"PROTOCOL VIOLATION","dcreascd":"Protocol Violation","mmsetot":18},{"studyid":"CDISCPILOT01","usubjid":"01-704-1332","subjid":"1332","siteid":"704","sitegr1":"704","arm":"Xanomeline High Dose","trt01p":"Xanomeline High Dose","trt01pn":81,"trt01a":"Xanomeline High Dose","trt01an":81,"trtsdt":"2013-12-09","trtedt":"2014-02-14","trtdur":68,"avgdd":75,"cumdose":5103,"age":80,"agegr1":"65-80","agegr1n":2,"ageu":"YEARS","race":"WHITE","racen":1,"sex":"M","ethnic":"NOT HISPANIC OR LATINO","saffl":"Y","ittfl":"Y","efffl":"Y","comp8fl":"Y","comp16fl":"N","comp24fl":"N","disconfl":"Y","dsraefl":"Y","dthfl":"","bmibl":26.2,"bmiblgr1":"25-<30","heightbl":173,"weightbl":78.5,"educlvl":9,"disonsdt":"2011-11-09","durdis":24.5,"durdsgr1":">=12","visit1dt":"2013-11-24","rfstdtc":"2013-12-09","rfendtc":"2014-02-16","visnumen":9,"rfendt":"2014-02-16","dcdecod":"ADVERSE EVENT","dcreascd":"Adverse Event","mmsetot":22},{"studyid":"CDISCPILOT01","usubjid":"01-704-1351","subjid":"1351","siteid":"704","sitegr1":"704","arm":"Placebo","trt01p":"Placebo","trt01pn":0,"trt01a":"Placebo","trt01an":0,"trtsdt":"2013-10-12","trtedt":"2014-04-18","trtdur":189,"avgdd":0,"cumdose":0,"age":70,"agegr1":"65-80","agegr1n":2,"ageu":"YEARS","race":"WHITE","racen":1,"sex":"M","ethnic":"NOT HISPANIC OR LATINO","saffl":"Y","ittfl":"Y","efffl":"Y","comp8fl":"Y","comp16fl":"Y","comp24fl":"Y","disconfl":"","dsraefl":"","dthfl":"","bmibl":23.9,"bmiblgr1":"<25","heightbl":175.3,"weightbl":73.5,"educlvl":12,"disonsdt":"2012-09-10","durdis":12.6,"durdsgr1":">=12","visit1dt":"2013-09-26","rfstdtc":"2013-10-12","rfendtc":"2014-04-18","visnumen":12,"rfendt":"2014-04-18","dcdecod":"COMPLETED","dcreascd":"Completed","mmsetot":22},{"studyid":"CDISCPILOT01","usubjid":"01-704-1388","subjid":"1388","siteid":"704","sitegr1":"704","arm":"Placebo","trt01p":"Placebo","trt01pn":0,"trt01a":"Placebo","trt01an":0,"trtsdt":"2012-12-07","trtedt":"2013-06-11","trtdur":187,"avgdd":0,"cumdose":0,"age":81,"agegr1":">80","agegr1n":3,"ageu":"YEARS","race":"WHITE","racen":1,"sex":"M","ethnic":"NOT HISPANIC OR LATINO","saffl":"Y","ittfl":"Y","efffl":"Y","comp8fl":"Y","comp16fl":"Y","comp24fl":"Y","disconfl":"","dsraefl":"","dthfl":"","bmibl":18.8,"bmiblgr1":"<25","heightbl":176.5,"weightbl":58.5,"educlvl":11,"disonsdt":"2010-10-26","durdis":25.1,"durdsgr1":">=12","visit1dt":"2012-11-28","rfstdtc":"2012-12-07","rfendtc":"2013-06-19","visnumen":12,"rfendt":"2013-06-19","dcdecod":"COMPLETED","dcreascd":"Completed","mmsetot":20},{"studyid":"CDISCPILOT01","usubjid":"01-704-1435","subjid":"1435","siteid":"704","sitegr1":"704","arm":"Placebo","trt01p":"Placebo","trt01pn":0,"trt01a":"Placebo","trt01an":0,"trtsdt":"2012-11-17","trtedt":"2013-01-09","trtdur":54,"avgdd":0,"cumdose":0,"age":74,"agegr1":"65-80","agegr1n":2,"ageu":"YEARS","race":"WHITE","racen":1,"sex":"M","ethnic":"NOT HISPANIC OR LATINO","saffl":"Y","ittfl":"Y","efffl":"Y","comp8fl":"Y","comp16fl":"N","comp24fl":"N","disconfl":"Y","dsraefl":"","dthfl":"","bmibl":27.1,"bmiblgr1":"25-<30","heightbl":167.6,"weightbl":76.2,"educlvl":16,"disonsdt":"2010-01-20","durdis":33.4,"durdsgr1":">=12","visit1dt":"2012-11-01","rfstdtc":"2012-11-17","rfendtc":"2013-01-12","visnumen":8,"rfendt":"2013-01-12","dcdecod":"WITHDRAWAL BY SUBJECT","dcreascd":"Withdrew Consent","mmsetot":20},{"studyid":"CDISCPILOT01","usubjid":"01-704-1445","subjid":"1445","siteid":"704","sitegr1":"704","arm":"Placebo","trt01p":"Placebo","trt01pn":0,"trt01a":"Placebo","trt01an":0,"trtsdt":"2014-05-11","trtedt":"2014-11-01","trtdur":175,"avgdd":0,"cumdose":0,"age":75,"agegr1":"65-80","agegr1n":2,"ageu":"YEARS","race":"WHITE","racen":1,"sex":"M","ethnic":"NOT HISPANIC OR LATINO","saffl":"Y","ittfl":"Y","efffl":"Y","comp8fl":"Y","comp16fl":"Y","comp24fl":"Y","disconfl":"Y","dsraefl":"","dthfl":"Y","bmibl":22.8,"bmiblgr1":"<25","heightbl":177.8,"weightbl":72.1,"educlvl":12,"disonsdt":"2012-11-11","durdis":17.6,"durdsgr1":">=12","visit1dt":"2014-05-01","rfstdtc":"2014-05-11","rfendtc":"2014-11-01","visnumen":12,"rfendt":"2014-11-01","dcdecod":"DEATH","dcreascd":"Death","mmsetot":23},{"studyid":"CDISCPILOT01","usubjid":"01-705-1018","subjid":"1018","siteid":"705","sitegr1":"705","arm":"Placebo","trt01p":"Placebo","trt01pn":0,"trt01a":"Placebo","trt01an":0,"trtsdt":"2013-07-05","trtedt":"2013-07-12","trtdur":8,"avgdd":0,"cumdose":0,"age":69,"agegr1":"65-80","agegr1n":2,"ageu":"YEARS","race":"WHITE","racen":1,"sex":"F","ethnic":"NOT HISPANIC OR LATINO","saffl":"Y","ittfl":"Y","efffl":"N","comp8fl":"N","comp16fl":"N","comp24fl":"N","disconfl":"Y","dsraefl":"","dthfl":"","bmibl":22.6,"bmiblgr1":"<25","heightbl":147.3,"weightbl":49,"educlvl":6,"disonsdt":"2009-11-21","durdis":43.3,"durdsgr1":">=12","visit1dt":"2013-06-30","rfstdtc":"2013-07-05","rfendtc":"2013-07-12","visnumen":4,"rfendt":"2013-07-12","dcdecod":"WITHDRAWAL BY SUBJECT","dcreascd":"Withdrew Consent","mmsetot":18},{"studyid":"CDISCPILOT01","usubjid":"01-705-1031","subjid":"1031","siteid":"705","sitegr1":"705","arm":"Xanomeline Low Dose","trt01p":"Xanomeline Low Dose","trt01pn":54,"trt01a":"Xanomeline Low Dose","trt01an":54,"trtsdt":"2013-11-27","trtedt":"2014-05-11","trtdur":166,"avgdd":54,"cumdose":8964,"age":56,"agegr1":"<65","agegr1n":1,"ageu":"YEARS","race":"WHITE","racen":1,"sex":"F","ethnic":"HISPANIC OR LATINO","saffl":"Y","ittfl":"Y","efffl":"Y","comp8fl":"Y","comp16fl":"Y","comp24fl":"Y","disconfl":"Y","dsraefl":"","dthfl":"","bmibl":28.9,"bmiblgr1":"25-<30","heightbl":157.5,"weightbl":71.7,"educlvl":16,"disonsdt":"2010-11-25","durdis":35.8,"durdsgr1":">=12","visit1dt":"2013-11-17","rfstdtc":"2013-11-27","rfendtc":"2014-05-11","visnumen":12,"rfendt":"2014-05-11","dcdecod":"LOST TO FOLLOW-UP","dcreascd":"Lost to Follow-up","mmsetot":23},{"studyid":"CDISCPILOT01","usubjid":"01-705-1059","subjid":"1059","siteid":"705","sitegr1":"705","arm":"Placebo","trt01p":"Placebo","trt01pn":0,"trt01a":"Placebo","trt01an":0,"trtsdt":"2013-08-05","trtedt":"2013-12-05","trtdur":123,"avgdd":0,"cumdose":0,"age":66,"agegr1":"65-80","agegr1n":2,"ageu":"YEARS","race":"WHITE","racen":1,"sex":"F","ethnic":"NOT HISPANIC OR LATINO","saffl":"Y","ittfl":"Y","efffl":"Y","comp8fl":"Y","comp16fl":"Y","comp24fl":"N","disconfl":"Y","dsraefl":"Y","dthfl":"","bmibl":20.4,"bmiblgr1":"<25","heightbl":162.6,"weightbl":54,"educlvl":12,"disonsdt":"2009-07-20","durdis":48.5,"durdsgr1":">=12","visit1dt":"2013-08-02","rfstdtc":"2013-08-05","rfendtc":"2013-12-05","visnumen":10,"rfendt":"2013-12-05","dcdecod":"ADVERSE EVENT","dcreascd":"Adverse Event","mmsetot":16},{"studyid":"CDISCPILOT01","usubjid":"01-705-1186","subjid":"1186","siteid":"705","sitegr1":"705","arm":"Placebo","trt01p":"Placebo","trt01pn":0,"trt01a":"Placebo","trt01an":0,"trtsdt":"2014-01-08","trtedt":"2014-01-26","trtdur":19,"avgdd":0,"cumdose":0,"age":84,"agegr1":">80","agegr1n":3,"ageu":"YEARS","race":"WHITE","racen":1,"sex":"F","ethnic":"NOT HISPANIC OR LATINO","saffl":"Y","ittfl":"Y","efffl":"N","comp8fl":"N","comp16fl":"N","comp24fl":"N","disconfl":"Y","dsraefl":"","dthfl":"","bmibl":19.7,"bmiblgr1":"<25","heightbl":142.2,"weightbl":39.9,"educlvl":12,"disonsdt":"2011-07-03","durdis":30.1,"durdsgr1":">=12","visit1dt":"2014-01-03","rfstdtc":"2014-01-08","rfendtc":"2014-02-07","visnumen":5,"rfendt":"2014-02-07","dcdecod":"PHYSICIAN DECISION","dcreascd":"Physician Decision","mmsetot":15},{"studyid":"CDISCPILOT01","usubjid":"01-705-1199","subjid":"1199","siteid":"705","sitegr1":"705","arm":"Xanomeline Low Dose","trt01p":"Xanomeline Low Dose","trt01pn":54,"trt01a":"Xanomeline Low Dose","trt01an":54,"trtsdt":"2013-09-16","trtedt":"2013-09-28","trtdur":13,"avgdd":54,"cumdose":702,"age":87,"agegr1":">80","agegr1n":3,"ageu":"YEARS","race":"WHITE","racen":1,"sex":"M","ethnic":"NOT HISPANIC OR LATINO","saffl":"Y","ittfl":"Y","efffl":"Y","comp8fl":"N","comp16fl":"N","comp24fl":"N","disconfl":"Y","dsraefl":"Y","dthfl":"","bmibl":24.8,"bmiblgr1":"<25","heightbl":161.3,"weightbl":64.4,"educlvl":20,"disonsdt":"2007-09-08","durdis":72.1,"durdsgr1":">=12","visit1dt":"2013-09-11","rfstdtc":"2013-09-16","rfendtc":"2013-09-29","visnumen":4,"rfendt":"2013-09-29","dcdecod":"ADVERSE EVENT","dcreascd":"Adverse Event","mmsetot":19},{"studyid":"CDISCPILOT01","usubjid":"01-705-1280","subjid":"1280","siteid":"705","sitegr1":"705","arm":"Xanomeline High Dose","trt01p":"Xanomeline High Dose","trt01pn":81,"trt01a":"Xanomeline High Dose","trt01an":81,"trtsdt":"2014-01-17","trtedt":"2014-07-25","trtdur":190,"avgdd":76.9,"cumdose":14607,"age":56,"agegr1":"<65","agegr1n":1,"ageu":"YEARS","race":"WHITE","racen":1,"sex":"F","ethnic":"NOT HISPANIC OR LATINO","saffl":"Y","ittfl":"Y","efffl":"Y","comp8fl":"Y","comp16fl":"Y","comp24fl":"Y","disconfl":"","dsraefl":"","dthfl":"","bmibl":28,"bmiblgr1":"25-<30","heightbl":157.5,"weightbl":69.4,"educlvl":12,"disonsdt":"2013-01-04","durdis":12.3,"durdsgr1":">=12","visit1dt":"2014-01-11","rfstdtc":"2014-01-17","rfendtc":"2014-07-25","visnumen":12,"rfendt":"2014-07-25","dcdecod":"COMPLETED","dcreascd":"Completed","mmsetot":23},{"studyid":"CDISCPILOT01","usubjid":"01-705-1281","subjid":"1281","siteid":"705","sitegr1":"705","arm":"Xanomeline High Dose","trt01p":"Xanomeline High Dose","trt01pn":81,"trt01a":"Xanomeline High Dose","trt01an":81,"trtsdt":"2013-11-28","trtedt":"2014-02-27","trtdur":92,"avgdd":75.7,"cumdose":6966,"age":73,"agegr1":"65-80","agegr1n":2,"ageu":"YEARS","race":"BLACK OR AFRICAN AMERICAN","racen":2,"sex":"F","ethnic":"NOT HISPANIC OR LATINO","saffl":"Y","ittfl":"Y","efffl":"Y","comp8fl":"Y","comp16fl":"Y","comp24fl":"N","disconfl":"Y","dsraefl":"Y","dthfl":"","bmibl":31.4,"bmiblgr1":">=30","heightbl":152.4,"weightbl":73,"educlvl":12,"disonsdt":"2012-11-05","durdis":12.7,"durdsgr1":">=12","visit1dt":"2013-11-26","rfstdtc":"2013-11-28","rfendtc":"2014-03-17","visnumen":10,"rfendt":"2014-03-17","dcdecod":"ADVERSE EVENT","dcreascd":"Adverse Event","mmsetot":23},{"studyid":"CDISCPILOT01","usubjid":"01-705-1282","subjid":"1282","siteid":"705","sitegr1":"705","arm":"Placebo","trt01p":"Placebo","trt01pn":0,"trt01a":"Placebo","trt01an":0,"trtsdt":"2012-12-26","trtedt":"2013-06-24","trtdur":181,"avgdd":0,"cumdose":0,"age":70,"agegr1":"65-80","agegr1n":2,"ageu":"YEARS","race":"BLACK OR AFRICAN AMERICAN","racen":2,"sex":"F","ethnic":"NOT HISPANIC OR LATINO","saffl":"Y","ittfl":"Y","efffl":"Y","comp8fl":"Y","comp16fl":"Y","comp24fl":"Y","disconfl":"","dsraefl":"","dthfl":"","bmibl":30.4,"bmiblgr1":">=30","heightbl":154.9,"weightbl":73,"educlvl":12,"disonsdt":"2006-12-06","durdis":72.6,"durdsgr1":">=12","visit1dt":"2012-12-23","rfstdtc":"2012-12-26","rfendtc":"2013-06-24","visnumen":12,"rfendt":"2013-06-24","dcdecod":"COMPLETED","dcreascd":"Completed","mmsetot":10},{"studyid":"CDISCPILOT01","usubjid":"01-705-1292","subjid":"1292","siteid":"705","sitegr1":"705","arm":"Xanomeline Low Dose","trt01p":"Xanomeline Low Dose","trt01pn":54,"trt01a":"Xanomeline Low Dose","trt01an":54,"trtsdt":"2013-10-14","trtedt":"2014-05-13","trtdur":212,"avgdd":54,"cumdose":11448,"age":60,"agegr1":"<65","agegr1n":1,"ageu":"YEARS","race":"BLACK OR AFRICAN AMERICAN","racen":2,"sex":"F","ethnic":"NOT HISPANIC OR LATINO","saffl":"Y","ittfl":"Y","efffl":"Y","comp8fl":"Y","comp16fl":"Y","comp24fl":"Y","disconfl":"","dsraefl":"","dthfl":"","bmibl":26.8,"bmiblgr1":"25-<30","heightbl":167.6,"weightbl":75.3,"educlvl":8,"disonsdt":"2012-09-28","durdis":12.5,"durdsgr1":">=12","visit1dt":"2013-10-11","rfstdtc":"2013-10-14","rfendtc":"2014-05-14","visnumen":12,"rfendt":"2014-05-14","dcdecod":"COMPLETED","dcreascd":"Completed","mmsetot":23},{"studyid":"CDISCPILOT01","usubjid":"01-705-1303","subjid":"1303","siteid":"705","sitegr1":"705","arm":"Xanomeline High Dose","trt01p":"Xanomeline High Dose","trt01pn":81,"trt01a":"Xanomeline High Dose","trt01an":81,"trtsdt":"2013-12-16","trtedt":"2014-06-02","trtdur":169,"avgdd":78.6,"cumdose":13284,"age":72,"agegr1":"65-80","agegr1n":2,"ageu":"YEARS","race":"WHITE","racen":1,"sex":"M","ethnic":"NOT HISPANIC OR LATINO","saffl":"Y","ittfl":"Y","efffl":"Y","comp8fl":"Y","comp16fl":"Y","comp24fl":"N","disconfl":"Y","dsraefl":"Y","dthfl":"","bmibl":27.5,"bmiblgr1":"25-<30","heightbl":175.3,"weightbl":84.4,"educlvl":12,"disonsdt":"2010-12-15","durdis":35.9,"durdsgr1":">=12","visit1dt":"2013-12-10","rfstdtc":"2013-12-16","rfendtc":"2014-06-02","visnumen":11,"rfendt":"2014-06-02","dcdecod":"ADVERSE EVENT","dcreascd":"Adverse Event","mmsetot":19},{"studyid":"CDISCPILOT01","usubjid":"01-705-1310","subjid":"1310","siteid":"705","sitegr1":"705","arm":"Xanomeline High Dose","trt01p":"Xanomeline High Dose","trt01pn":81,"trt01a":"Xanomeline High Dose","trt01an":81,"trtsdt":"2013-11-02","trtedt":"2014-01-23","trtdur":83,"avgdd":74.2,"cumdose":6156,"age":74,"agegr1":"65-80","agegr1n":2,"ageu":"YEARS","race":"WHITE","racen":1,"sex":"F","ethnic":"NOT HISPANIC OR LATINO","saffl":"Y","ittfl":"Y","efffl":"Y","comp8fl":"Y","comp16fl":"N","comp24fl":"N","disconfl":"Y","dsraefl":"Y","dthfl":"","bmibl":22.7,"bmiblgr1":"<25","heightbl":146.1,"weightbl":48.5,"educlvl":12,"disonsdt":"2011-10-30","durdis":23.9,"durdsgr1":">=12","visit1dt":"2013-10-26","rfstdtc":"2013-11-02","rfendtc":"2014-01-23","visnumen":9,"rfendt":"2014-01-23","dcdecod":"ADVERSE EVENT","dcreascd":"Adverse Event","mmsetot":20},{"studyid":"CDISCPILOT01","usubjid":"01-705-1349","subjid":"1349","siteid":"705","sitegr1":"705","arm":"Placebo","trt01p":"Placebo","trt01pn":0,"trt01a":"Placebo","trt01an":0,"trtsdt":"2013-03-10","trtedt":"2013-09-08","trtdur":183,"avgdd":0,"cumdose":0,"age":86,"agegr1":">80","agegr1n":3,"ageu":"YEARS","race":"WHITE","racen":1,"sex":"F","ethnic":"HISPANIC OR LATINO","saffl":"Y","ittfl":"Y","efffl":"Y","comp8fl":"Y","comp16fl":"Y","comp24fl":"Y","disconfl":"","dsraefl":"","dthfl":"","bmibl":21.2,"bmiblgr1":"<25","heightbl":144.8,"weightbl":44.5,"educlvl":10,"disonsdt":"2007-03-23","durdis":71.2,"durdsgr1":">=12","visit1dt":"2013-02-24","rfstdtc":"2013-03-10","rfendtc":"2013-09-08","visnumen":12,"rfendt":"2013-09-08","dcdecod":"COMPLETED","dcreascd":"Completed","mmsetot":15},{"studyid":"CDISCPILOT01","usubjid":"01-705-1377","subjid":"1377","siteid":"705","sitegr1":"705","arm":"Xanomeline High Dose","trt01p":"Xanomeline High Dose","trt01pn":81,"trt01a":"Xanomeline High Dose","trt01an":81,"trtsdt":"2014-01-04","trtedt":"2014-03-07","trtdur":63,"avgdd":71.6,"cumdose":4509,"age":63,"agegr1":"<65","agegr1n":1,"ageu":"YEARS","race":"BLACK OR AFRICAN AMERICAN","racen":2,"sex":"F","ethnic":"NOT HISPANIC OR LATINO","saffl":"Y","ittfl":"Y","efffl":"N","comp8fl":"N","comp16fl":"N","comp24fl":"N","disconfl":"Y","dsraefl":"","dthfl":"","bmibl":21,"bmiblgr1":"<25","heightbl":165.1,"weightbl":57.2,"educlvl":6,"disonsdt":"2012-01-05","durdis":23.8,"durdsgr1":">=12","visit1dt":"2013-12-29","rfstdtc":"2014-01-04","rfendtc":"2014-03-07","visnumen":7,"rfendt":"2014-03-07","dcdecod":"WITHDRAWAL BY SUBJECT","dcreascd":"Withdrew Consent","mmsetot":14},{"studyid":"CDISCPILOT01","usubjid":"01-705-1382","subjid":"1382","siteid":"705","sitegr1":"705","arm":"Xanomeline High Dose","trt01p":"Xanomeline High Dose","trt01pn":81,"trt01a":"Xanomeline High Dose","trt01an":81,"trtsdt":"2013-05-13","trtedt":"2013-05-13","trtdur":1,"avgdd":54,"cumdose":54,"age":82,"agegr1":">80","agegr1n":3,"ageu":"YEARS","race":"WHITE","racen":1,"sex":"M","ethnic":"NOT HISPANIC OR LATINO","saffl":"Y","ittfl":"Y","efffl":"N","comp8fl":"N","comp16fl":"N","comp24fl":"N","disconfl":"Y","dsraefl":"","dthfl":"","bmibl":33.2,"bmiblgr1":">=30","heightbl":170.2,"weightbl":96.2,"educlvl":12,"disonsdt":"2012-05-03","durdis":12.2,"durdsgr1":">=12","visit1dt":"2013-05-09","rfstdtc":"2013-05-13","rfendtc":"2013-05-13","visnumen":4,"rfendt":"2013-05-13","dcdecod":"PROTOCOL VIOLATION","dcreascd":"I/E Not Met","mmsetot":19},{"studyid":"CDISCPILOT01","usubjid":"01-705-1393","subjid":"1393","siteid":"705","sitegr1":"705","arm":"Xanomeline Low Dose","trt01p":"Xanomeline Low Dose","trt01pn":54,"trt01a":"Xanomeline Low Dose","trt01an":54,"trtsdt":"2012-09-07","trtedt":"2013-02-01","trtdur":148,"avgdd":54,"cumdose":7992,"age":84,"agegr1":">80","agegr1n":3,"ageu":"YEARS","race":"WHITE","racen":1,"sex":"F","ethnic":"NOT HISPANIC OR LATINO","saffl":"Y","ittfl":"Y","efffl":"Y","comp8fl":"Y","comp16fl":"Y","comp24fl":"N","disconfl":"Y","dsraefl":"Y","dthfl":"","bmibl":26.9,"bmiblgr1":"25-<30","heightbl":144.8,"weightbl":56.3,"educlvl":13,"disonsdt":"2004-09-08","durdis":95.8,"durdsgr1":">=12","visit1dt":"2012-09-02","rfstdtc":"2012-09-07","rfendtc":"2013-02-20","visnumen":11,"rfendt":"2013-02-20","dcdecod":"ADVERSE EVENT","dcreascd":"Adverse Event","mmsetot":19},{"studyid":"CDISCPILOT01","usubjid":"01-705-1431","subjid":"1431","siteid":"705","sitegr1":"705","arm":"Xanomeline Low Dose","trt01p":"Xanomeline Low Dose","trt01pn":54,"trt01a":"Xanomeline Low Dose","trt01an":54,"trtsdt":"2013-06-23","trtedt":"2013-12-19","trtdur":180,"avgdd":54,"cumdose":9720,"age":68,"agegr1":"65-80","agegr1n":2,"ageu":"YEARS","race":"WHITE","racen":1,"sex":"F","ethnic":"HISPANIC OR LATINO","saffl":"Y","ittfl":"Y","efffl":"Y","comp8fl":"Y","comp16fl":"Y","comp24fl":"Y","disconfl":"","dsraefl":"","dthfl":"","bmibl":24.2,"bmiblgr1":"<25","heightbl":149.9,"weightbl":54.4,"educlvl":12,"disonsdt":"2010-07-04","durdis":35.4,"durdsgr1":">=12","visit1dt":"2013-06-16","rfstdtc":"2013-06-23","rfendtc":"2013-12-19","visnumen":12,"rfendt":"2013-12-19","dcdecod":"COMPLETED","dcreascd":"Completed","mmsetot":21},{"studyid":"CDISCPILOT01","usubjid":"01-706-1041","subjid":"1041","siteid":"706","sitegr1":"900","arm":"Placebo","trt01p":"Placebo","trt01pn":0,"trt01a":"Placebo","trt01an":0,"trtsdt":"2013-12-31","trtedt":"2014-07-28","trtdur":210,"avgdd":0,"cumdose":0,"age":64,"agegr1":"<65","agegr1n":1,"ageu":"YEARS","race":"BLACK OR AFRICAN AMERICAN","racen":2,"sex":"F","ethnic":"NOT HISPANIC OR LATINO","saffl":"Y","ittfl":"Y","efffl":"Y","comp8fl":"Y","comp16fl":"Y","comp24fl":"Y","disconfl":"","dsraefl":"","dthfl":"","bmibl":20.9,"bmiblgr1":"<25","heightbl":167.6,"weightbl":58.7,"educlvl":15,"disonsdt":"2011-11-18","durdis":25.1,"durdsgr1":">=12","visit1dt":"2013-12-21","rfstdtc":"2013-12-31","rfendtc":"2014-07-29","visnumen":12,"rfendt":"2014-07-29","dcdecod":"COMPLETED","dcreascd":"Completed","mmsetot":20},{"studyid":"CDISCPILOT01","usubjid":"01-706-1049","subjid":"1049","siteid":"706","sitegr1":"900","arm":"Xanomeline High Dose","trt01p":"Xanomeline High Dose","trt01pn":81,"trt01a":"Xanomeline High Dose","trt01an":81,"trtsdt":"2013-05-14","trtedt":"2013-06-18","trtdur":36,"avgdd":69.8,"cumdose":2511,"age":60,"agegr1":"<65","agegr1n":1,"ageu":"YEARS","race":"WHITE","racen":1,"sex":"F","ethnic":"NOT HISPANIC OR LATINO","saffl":"Y","ittfl":"Y","efffl":"Y","comp8fl":"N","comp16fl":"N","comp24fl":"N","disconfl":"Y","dsraefl":"Y","dthfl":"","bmibl":20.6,"bmiblgr1":"<25","heightbl":167.6,"weightbl":57.8,"educlvl":11,"disonsdt":"2010-05-02","durdis":36,"durdsgr1":">=12","visit1dt":"2013-04-30","rfstdtc":"2013-05-14","rfendtc":"2013-06-25","visnumen":7,"rfendt":"2013-06-25","dcdecod":"ADVERSE EVENT","dcreascd":"Adverse Event","mmsetot":16},{"studyid":"CDISCPILOT01","usubjid":"01-706-1384","subjid":"1384","siteid":"706","sitegr1":"900","arm":"Xanomeline Low Dose","trt01p":"Xanomeline Low Dose","trt01pn":54,"trt01a":"Xanomeline Low Dose","trt01an":54,"trtsdt":"2012-09-15","trtedt":"2012-09-24","trtdur":10,"avgdd":54,"cumdose":540,"age":74,"agegr1":"65-80","agegr1n":2,"ageu":"YEARS","race":"WHITE","racen":1,"sex":"F","ethnic":"NOT HISPANIC OR LATINO","saffl":"Y","ittfl":"Y","efffl":"Y","comp8fl":"N","comp16fl":"N","comp24fl":"N","disconfl":"Y","dsraefl":"Y","dthfl":"","bmibl":30.6,"bmiblgr1":">=30","heightbl":157.5,"weightbl":76,"educlvl":8,"disonsdt":"2008-05-04","durdis":51.7,"durdsgr1":">=12","visit1dt":"2012-08-25","rfstdtc":"2012-09-15","rfendtc":"2012-09-29","visnumen":4,"rfendt":"2012-09-29","dcdecod":"ADVERSE EVENT","dcreascd":"Adverse Event","mmsetot":20},{"studyid":"CDISCPILOT01","usubjid":"01-707-1037","subjid":"1037","siteid":"707","sitegr1":"900","arm":"Xanomeline Low Dose","trt01p":"Xanomeline Low Dose","trt01pn":54,"trt01a":"Xanomeline Low Dose","trt01an":54,"trtsdt":"2013-12-20","trtedt":"2013-12-24","trtdur":5,"avgdd":54,"cumdose":270,"age":72,"agegr1":"65-80","agegr1n":2,"ageu":"YEARS","race":"WHITE","racen":1,"sex":"F","ethnic":"NOT HISPANIC OR LATINO","saffl":"Y","ittfl":"Y","efffl":"Y","comp8fl":"N","comp16fl":"N","comp24fl":"N","disconfl":"Y","dsraefl":"","dthfl":"","bmibl":23.8,"bmiblgr1":"<25","heightbl":152.4,"weightbl":55.3,"educlvl":14,"disonsdt":"2009-01-02","durdis":59.3,"durdsgr1":">=12","visit1dt":"2013-12-12","rfstdtc":"2013-12-20","rfendtc":"2014-01-08","visnumen":4,"rfendt":"2014-01-08","dcdecod":"WITHDRAWAL BY SUBJECT","dcreascd":"Withdrew Consent","mmsetot":24},{"studyid":"CDISCPILOT01","usubjid":"01-707-1206","subjid":"1206","siteid":"707","sitegr1":"900","arm":"Placebo","trt01p":"Placebo","trt01pn":0,"trt01a":"Placebo","trt01an":0,"trtsdt":"2013-10-28","trtedt":"2014-04-26","trtdur":181,"avgdd":0,"cumdose":0,"age":65,"agegr1":"65-80","agegr1n":2,"ageu":"YEARS","race":"WHITE","racen":1,"sex":"M","ethnic":"NOT HISPANIC OR LATINO","saffl":"Y","ittfl":"Y","efffl":"Y","comp8fl":"Y","comp16fl":"Y","comp24fl":"Y","disconfl":"","dsraefl":"","dthfl":"","bmibl":24.6,"bmiblgr1":"<25","heightbl":174,"weightbl":74.4,"educlvl":7,"disonsdt":"2012-08-23","durdis":13.9,"durdsgr1":">=12","visit1dt":"2013-10-20","rfstdtc":"2013-10-28","rfendtc":"2014-04-27","visnumen":12,"rfendt":"2014-04-27","dcdecod":"COMPLETED","dcreascd":"Completed","mmsetot":21},{"studyid":"CDISCPILOT01","usubjid":"01-708-1019","subjid":"1019","siteid":"708","sitegr1":"708","arm":"Xanomeline Low Dose","trt01p":"Xanomeline Low Dose","trt01pn":54,"trt01a":"Xanomeline Low Dose","trt01an":54,"trtsdt":"2013-12-20","trtedt":"2014-01-01","trtdur":13,"avgdd":54,"cumdose":702,"age":68,"agegr1":"65-80","agegr1n":2,"ageu":"YEARS","race":"WHITE","racen":1,"sex":"M","ethnic":"NOT HISPANIC OR LATINO","saffl":"Y","ittfl":"Y","efffl":"Y","comp8fl":"N","comp16fl":"N","comp24fl":"N","disconfl":"Y","dsraefl":"Y","dthfl":"","bmibl":22.2,"bmiblgr1":"<25","heightbl":182.9,"weightbl":74.4,"educlvl":18,"disonsdt":"2006-12-19","durdis":83.7,"durdsgr1":">=12","visit1dt":"2013-12-10","rfstdtc":"2013-12-20","rfendtc":"2014-01-23","visnumen":4,"rfendt":"2014-01-23","dcdecod":"ADVERSE EVENT","dcreascd":"Adverse Event","mmsetot":17},{"studyid":"CDISCPILOT01","usubjid":"01-708-1032","subjid":"1032","siteid":"708","sitegr1":"708","arm":"Xanomeline Low Dose","trt01p":"Xanomeline Low Dose","trt01pn":54,"trt01a":"Xanomeline Low Dose","trt01an":54,"trtsdt":"2013-02-09","trtedt":"2013-03-01","trtdur":21,"avgdd":54,"cumdose":1134,"age":62,"agegr1":"<65","agegr1n":1,"ageu":"YEARS","race":"WHITE","racen":1,"sex":"M","ethnic":"NOT HISPANIC OR LATINO","saffl":"Y","ittfl":"Y","efffl":"Y","comp8fl":"N","comp16fl":"N","comp24fl":"N","disconfl":"Y","dsraefl":"Y","dthfl":"","bmibl":26.1,"bmiblgr1":"25-<30","heightbl":177.8,"weightbl":82.6,"educlvl":12,"disonsdt":"2002-07-16","durdis":126.7,"durdsgr1":">=12","visit1dt":"2013-02-02","rfstdtc":"2013-02-09","rfendtc":"2013-03-09","visnumen":5,"rfendt":"2013-03-09","dcdecod":"ADVERSE EVENT","dcreascd":"Adverse Event","mmsetot":18},{"studyid":"CDISCPILOT01","usubjid":"01-708-1084","subjid":"1084","siteid":"708","sitegr1":"708","arm":"Xanomeline Low Dose","trt01p":"Xanomeline Low Dose","trt01pn":54,"trt01a":"Xanomeline Low Dose","trt01an":54,"trtsdt":"2013-05-09","trtedt":"2013-11-11","trtdur":187,"avgdd":54,"cumdose":10098,"age":73,"agegr1":"65-80","agegr1n":2,"ageu":"YEARS","race":"WHITE","racen":1,"sex":"F","ethnic":"NOT HISPANIC OR LATINO","saffl":"Y","ittfl":"Y","efffl":"Y","comp8fl":"Y","comp16fl":"Y","comp24fl":"Y","disconfl":"","dsraefl":"","dthfl":"","bmibl":17.9,"bmiblgr1":"<25","heightbl":167.6,"weightbl":50.4,"educlvl":12,"disonsdt":"2010-04-26","durdis":36.2,"durdsgr1":">=12","visit1dt":"2013-05-01","rfstdtc":"2013-05-09","rfendtc":"2013-11-11","visnumen":12,"rfendt":"2013-11-11","dcdecod":"COMPLETED","dcreascd":"Completed","mmsetot":23},{"studyid":"CDISCPILOT01","usubjid":"01-708-1087","subjid":"1087","siteid":"708","sitegr1":"708","arm":"Placebo","trt01p":"Placebo","trt01pn":0,"trt01a":"Placebo","trt01an":0,"trtsdt":"2012-10-22","trtedt":"2013-04-28","trtdur":189,"avgdd":0,"cumdose":0,"age":74,"agegr1":"65-80","agegr1n":2,"ageu":"YEARS","race":"WHITE","racen":1,"sex":"F","ethnic":"NOT HISPANIC OR LATINO","saffl":"Y","ittfl":"Y","efffl":"Y","comp8fl":"Y","comp16fl":"Y","comp24fl":"Y","disconfl":"","dsraefl":"","dthfl":"","bmibl":26.9,"bmiblgr1":"25-<30","heightbl":157.5,"weightbl":66.7,"educlvl":12,"disonsdt":"2008-09-02","durdis":49.1,"durdsgr1":">=12","visit1dt":"2012-10-06","rfstdtc":"2012-10-22","rfendtc":"2013-04-28","visnumen":12,"rfendt":"2013-04-28","dcdecod":"COMPLETED","dcreascd":"Completed","mmsetot":17},{"studyid":"CDISCPILOT01","usubjid":"01-708-1158","subjid":"1158","siteid":"708","sitegr1":"708","arm":"Placebo","trt01p":"Placebo","trt01pn":0,"trt01a":"Placebo","trt01an":0,"trtsdt":"2014-02-08","trtedt":"2014-03-21","trtdur":42,"avgdd":0,"cumdose":0,"age":81,"agegr1":">80","agegr1n":3,"ageu":"YEARS","race":"WHITE","racen":1,"sex":"F","ethnic":"NOT HISPANIC OR LATINO","saffl":"Y","ittfl":"Y","efffl":"Y","comp8fl":"N","comp16fl":"N","comp24fl":"N","disconfl":"Y","dsraefl":"Y","dthfl":"","bmibl":27.8,"bmiblgr1":"25-<30","heightbl":162.6,"weightbl":73.5,"educlvl":8,"disonsdt":"2010-08-01","durdis":42.1,"durdsgr1":">=12","visit1dt":"2014-02-01","rfstdtc":"2014-02-08","rfendtc":"2014-03-22","visnumen":7,"rfendt":"2014-03-22","dcdecod":"ADVERSE EVENT","dcreascd":"Adverse Event","mmsetot":16},{"studyid":"CDISCPILOT01","usubjid":"01-708-1171","subjid":"1171","siteid":"708","sitegr1":"708","arm":"Placebo","trt01p":"Placebo","trt01pn":0,"trt01a":"Placebo","trt01an":0,"trtsdt":"2012-12-06","trtedt":"2013-06-04","trtdur":181,"avgdd":0,"cumdose":0,"age":77,"agegr1":"65-80","agegr1n":2,"ageu":"YEARS","race":"WHITE","racen":1,"sex":"F","ethnic":"NOT HISPANIC OR LATINO","saffl":"Y","ittfl":"Y","efffl":"Y","comp8fl":"Y","comp16fl":"Y","comp24fl":"Y","disconfl":"","dsraefl":"","dthfl":"","bmibl":20.8,"bmiblgr1":"<25","heightbl":162.6,"weightbl":54.9,"educlvl":9,"disonsdt":"2010-09-24","durdis":26.1,"durdsgr1":">=12","visit1dt":"2012-11-25","rfstdtc":"2012-12-06","rfendtc":"2013-06-04","visnumen":12,"rfendt":"2013-06-04","dcdecod":"COMPLETED","dcreascd":"Completed","mmsetot":13},{"studyid":"CDISCPILOT01","usubjid":"01-708-1178","subjid":"1178","siteid":"708","sitegr1":"708","arm":"Xanomeline High Dose","trt01p":"Xanomeline High Dose","trt01pn":81,"trt01a":"Xanomeline High Dose","trt01an":81,"trtsdt":"2013-12-29","trtedt":"2014-04-06","trtdur":99,"avgdd":75.3,"cumdose":7452,"age":77,"agegr1":"65-80","agegr1n":2,"ageu":"YEARS","race":"BLACK OR AFRICAN AMERICAN","racen":2,"sex":"F","ethnic":"NOT HISPANIC OR LATINO","saffl":"Y","ittfl":"Y","efffl":"Y","comp8fl":"Y","comp16fl":"N","comp24fl":"N","disconfl":"Y","dsraefl":"","dthfl":"","bmibl":23,"bmiblgr1":"<25","heightbl":165.1,"weightbl":62.8,"educlvl":8,"disonsdt":"2008-08-10","durdis":64.1,"durdsgr1":">=12","visit1dt":"2013-12-13","rfstdtc":"2013-12-29","rfendtc":"2014-04-06","visnumen":9,"rfendt":"2014-04-06","dcdecod":"PHYSICIAN DECISION","dcreascd":"Physician Decision","mmsetot":10},{"studyid":"CDISCPILOT01","usubjid":"01-708-1213","subjid":"1213","siteid":"708","sitegr1":"708","arm":"Xanomeline High Dose","trt01p":"Xanomeline High Dose","trt01pn":81,"trt01a":"Xanomeline High Dose","trt01an":81,"trtsdt":"2013-02-09","trtedt":"2013-02-22","trtdur":14,"avgdd":54,"cumdose":756,"age":76,"agegr1":"65-80","agegr1n":2,"ageu":"YEARS","race":"WHITE","racen":1,"sex":"F","ethnic":"NOT HISPANIC OR LATINO","saffl":"Y","ittfl":"Y","efffl":"N","comp8fl":"N","comp16fl":"N","comp24fl":"N","disconfl":"Y","dsraefl":"Y","dthfl":"","bmibl":15.3,"bmiblgr1":"<25","heightbl":165.1,"weightbl":41.7,"educlvl":12,"disonsdt":"2011-02-06","durdis":23.9,"durdsgr1":">=12","visit1dt":"2013-02-01","rfstdtc":"2013-02-09","rfendtc":"2013-02-26","visnumen":5,"rfendt":"2013-02-26","dcdecod":"ADVERSE EVENT","dcreascd":"Adverse Event","mmsetot":14},{"studyid":"CDISCPILOT01","usubjid":"01-708-1216","subjid":"1216","siteid":"708","sitegr1":"708","arm":"Xanomeline High Dose","trt01p":"Xanomeline High Dose","trt01pn":81,"trt01a":"Xanomeline High Dose","trt01an":81,"trtsdt":"2012-10-24","trtedt":"2012-11-29","trtdur":37,"avgdd":69.3,"cumdose":2565,"age":78,"agegr1":"65-80","agegr1n":2,"ageu":"YEARS","race":"WHITE","racen":1,"sex":"M","ethnic":"NOT HISPANIC OR LATINO","saffl":"Y","ittfl":"Y","efffl":"Y","comp8fl":"N","comp16fl":"N","comp24fl":"N","disconfl":"Y","dsraefl":"Y","dthfl":"","bmibl":25.9,"bmiblgr1":"25-<30","heightbl":172.7,"weightbl":77.1,"educlvl":12,"disonsdt":"2001-07-15","durdis":135,"durdsgr1":">=12","visit1dt":"2012-10-14","rfstdtc":"2012-10-24","rfendtc":"2012-12-06","visnumen":7,"rfendt":"2012-12-06","dcdecod":"ADVERSE EVENT","dcreascd":"Adverse Event","mmsetot":17},{"studyid":"CDISCPILOT01","usubjid":"01-708-1236","subjid":"1236","siteid":"708","sitegr1":"708","arm":"Xanomeline High Dose","trt01p":"Xanomeline High Dose","trt01pn":81,"trt01a":"Xanomeline High Dose","trt01an":81,"trtsdt":"2013-09-21","trtedt":"2013-09-21","trtdur":1,"avgdd":54,"cumdose":54,"age":86,"agegr1":">80","agegr1n":3,"ageu":"YEARS","race":"WHITE","racen":1,"sex":"F","ethnic":"NOT HISPANIC OR LATINO","saffl":"Y","ittfl":"Y","efffl":"N","comp8fl":"N","comp16fl":"N","comp24fl":"N","disconfl":"Y","dsraefl":"","dthfl":"","bmibl":23.4,"bmiblgr1":"<25","heightbl":152.4,"weightbl":54.4,"educlvl":8,"disonsdt":"2012-09-08","durdis":12,"durdsgr1":">=12","visit1dt":"2013-09-08","rfstdtc":"2013-09-21","rfendtc":"2013-09-26","visnumen":4,"rfendt":"2013-09-26","dcdecod":"WITHDRAWAL BY SUBJECT","dcreascd":"Withdrew Consent","mmsetot":22},{"studyid":"CDISCPILOT01","usubjid":"01-708-1253","subjid":"1253","siteid":"708","sitegr1":"708","arm":"Placebo","trt01p":"Placebo","trt01pn":0,"trt01a":"Placebo","trt01an":0,"trtsdt":"2013-05-07","trtedt":"2013-11-05","trtdur":183,"avgdd":0,"cumdose":0,"age":61,"agegr1":"<65","agegr1n":1,"ageu":"YEARS","race":"WHITE","racen":1,"sex":"M","ethnic":"NOT HISPANIC OR LATINO","saffl":"Y","ittfl":"Y","efffl":"Y","comp8fl":"Y","comp16fl":"Y","comp24fl":"Y","disconfl":"","dsraefl":"","dthfl":"","bmibl":22.1,"bmiblgr1":"<25","heightbl":185.4,"weightbl":75.8,"educlvl":12,"disonsdt":"2009-03-12","durdis":49.5,"durdsgr1":">=12","visit1dt":"2013-04-26","rfstdtc":"2013-05-07","rfendtc":"2013-11-05","visnumen":12,"rfendt":"2013-11-05","dcdecod":"COMPLETED","dcreascd":"Completed","mmsetot":12},{"studyid":"CDISCPILOT01","usubjid":"01-708-1272","subjid":"1272","siteid":"708","sitegr1":"708","arm":"Xanomeline Low Dose","trt01p":"Xanomeline Low Dose","trt01pn":54,"trt01a":"Xanomeline Low Dose","trt01an":54,"trtsdt":"2013-02-06","trtedt":"2013-03-22","trtdur":45,"avgdd":54,"cumdose":2430,"age":82,"agegr1":">80","agegr1n":3,"ageu":"YEARS","race":"WHITE","racen":1,"sex":"M","ethnic":"NOT HISPANIC OR LATINO","saffl":"Y","ittfl":"Y","efffl":"Y","comp8fl":"Y","comp16fl":"N","comp24fl":"N","disconfl":"Y","dsraefl":"","dthfl":"","bmibl":24.9,"bmiblgr1":"<25","heightbl":172.7,"weightbl":74.4,"educlvl":11,"disonsdt":"2006-08-07","durdis":77.6,"durdsgr1":">=12","visit1dt":"2013-01-22","rfstdtc":"2013-02-06","rfendtc":"2013-04-04","visnumen":8,"rfendt":"2013-04-04","dcdecod":"WITHDRAWAL BY SUBJECT","dcreascd":"Withdrew Consent","mmsetot":15},{"studyid":"CDISCPILOT01","usubjid":"01-708-1286","subjid":"1286","siteid":"708","sitegr1":"708","arm":"Placebo","trt01p":"Placebo","trt01pn":0,"trt01a":"Placebo","trt01an":0,"trtsdt":"2013-09-10","trtedt":"2014-03-08","trtdur":180,"avgdd":0,"cumdose":0,"age":80,"agegr1":"65-80","agegr1n":2,"ageu":"YEARS","race":"BLACK OR AFRICAN AMERICAN","racen":2,"sex":"F","ethnic":"NOT HISPANIC OR LATINO","saffl":"Y","ittfl":"Y","efffl":"Y","comp8fl":"Y","comp16fl":"Y","comp24fl":"Y","disconfl":"","dsraefl":"","dthfl":"","bmibl":32.8,"bmiblgr1":">=30","heightbl":152.4,"weightbl":76.2,"educlvl":12,"disonsdt":"2001-10-03","durdis":142.8,"durdsgr1":">=12","visit1dt":"2013-08-25","rfstdtc":"2013-09-10","rfendtc":"2014-03-08","visnumen":12,"rfendt":"2014-03-08","dcdecod":"COMPLETED","dcreascd":"Completed","mmsetot":10},{"studyid":"CDISCPILOT01","usubjid":"01-708-1296","subjid":"1296","siteid":"708","sitegr1":"708","arm":"Placebo","trt01p":"Placebo","trt01pn":0,"trt01a":"Placebo","trt01an":0,"trtsdt":"2013-06-14","trtedt":"2013-12-12","trtdur":182,"avgdd":0,"cumdose":0,"age":57,"agegr1":"<65","agegr1n":1,"ageu":"YEARS","race":"BLACK OR AFRICAN AMERICAN","racen":2,"sex":"M","ethnic":"NOT HISPANIC OR LATINO","saffl":"Y","ittfl":"Y","efffl":"Y","comp8fl":"Y","comp16fl":"Y","comp24fl":"Y","disconfl":"","dsraefl":"","dthfl":"","bmibl":27.9,"bmiblgr1":"25-<30","heightbl":170.2,"weightbl":80.7,"educlvl":18,"disonsdt":"2010-02-03","durdis":40.1,"durdsgr1":">=12","visit1dt":"2013-06-07","rfstdtc":"2013-06-14","rfendtc":"2013-12-12","visnumen":12,"rfendt":"2013-12-12","dcdecod":"COMPLETED","dcreascd":"Completed","mmsetot":16},{"studyid":"CDISCPILOT01","usubjid":"01-708-1297","subjid":"1297","siteid":"708","sitegr1":"708","arm":"Xanomeline Low Dose","trt01p":"Xanomeline Low Dose","trt01pn":54,"trt01a":"Xanomeline Low Dose","trt01an":54,"trtsdt":"2013-01-25","trtedt":"2013-05-03","trtdur":99,"avgdd":54,"cumdose":5346,"age":61,"agegr1":"<65","agegr1n":1,"ageu":"YEARS","race":"WHITE","racen":1,"sex":"M","ethnic":"NOT HISPANIC OR LATINO","saffl":"Y","ittfl":"Y","efffl":"Y","comp8fl":"Y","comp16fl":"Y","comp24fl":"N","disconfl":"Y","dsraefl":"Y","dthfl":"","bmibl":23,"bmiblgr1":"<25","heightbl":185.4,"weightbl":78.9,"educlvl":13,"disonsdt":"2008-02-27","durdis":58.6,"durdsgr1":">=12","visit1dt":"2013-01-15","rfstdtc":"2013-01-25","rfendtc":"2013-05-08","visnumen":10,"rfendt":"2013-05-08","dcdecod":"ADVERSE EVENT","dcreascd":"Adverse Event","mmsetot":23},{"studyid":"CDISCPILOT01","usubjid":"01-708-1316","subjid":"1316","siteid":"708","sitegr1":"708","arm":"Placebo","trt01p":"Placebo","trt01pn":0,"trt01a":"Placebo","trt01an":0,"trtsdt":"2013-08-23","trtedt":"2014-03-01","trtdur":191,"avgdd":0,"cumdose":0,"age":74,"agegr1":"65-80","agegr1n":2,"ageu":"YEARS","race":"WHITE","racen":1,"sex":"F","ethnic":"NOT HISPANIC OR LATINO","saffl":"Y","ittfl":"Y","efffl":"Y","comp8fl":"Y","comp16fl":"Y","comp24fl":"Y","disconfl":"","dsraefl":"","dthfl":"","bmibl":23.4,"bmiblgr1":"<25","heightbl":160,"weightbl":59.9,"educlvl":12,"disonsdt":"2011-08-08","durdis":24.3,"durdsgr1":">=12","visit1dt":"2013-08-15","rfstdtc":"2013-08-23","rfendtc":"2014-03-01","visnumen":12,"rfendt":"2014-03-01","dcdecod":"COMPLETED","dcreascd":"Completed","mmsetot":22},{"studyid":"CDISCPILOT01","usubjid":"01-708-1336","subjid":"1336","siteid":"708","sitegr1":"708","arm":"Xanomeline High Dose","trt01p":"Xanomeline High Dose","trt01pn":81,"trt01a":"Xanomeline High Dose","trt01an":81,"trtsdt":"2012-12-07","trtedt":"2013-06-05","trtdur":181,"avgdd":76.7,"cumdose":13878,"age":73,"agegr1":"65-80","agegr1n":2,"ageu":"YEARS","race":"WHITE","racen":1,"sex":"M","ethnic":"NOT HISPANIC OR LATINO","saffl":"Y","ittfl":"Y","efffl":"Y","comp8fl":"Y","comp16fl":"Y","comp24fl":"Y","disconfl":"","dsraefl":"","dthfl":"","bmibl":24.1,"bmiblgr1":"<25","heightbl":190.5,"weightbl":87.5,"educlvl":18,"disonsdt":"2002-12-01","durdis":119.7,"durdsgr1":">=12","visit1dt":"2012-11-21","rfstdtc":"2012-12-07","rfendtc":"2013-06-05","visnumen":12,"rfendt":"2013-06-05","dcdecod":"COMPLETED","dcreascd":"Completed","mmsetot":15},{"studyid":"CDISCPILOT01","usubjid":"01-708-1342","subjid":"1342","siteid":"708","sitegr1":"708","arm":"Placebo","trt01p":"Placebo","trt01pn":0,"trt01a":"Placebo","trt01an":0,"trtsdt":"2012-12-29","trtedt":"2013-06-28","trtdur":182,"avgdd":0,"cumdose":0,"age":59,"agegr1":"<65","agegr1n":1,"ageu":"YEARS","race":"WHITE","racen":1,"sex":"F","ethnic":"NOT HISPANIC OR LATINO","saffl":"Y","ittfl":"Y","efffl":"Y","comp8fl":"Y","comp16fl":"Y","comp24fl":"Y","disconfl":"","dsraefl":"","dthfl":"","bmibl":20.4,"bmiblgr1":"<25","heightbl":170.2,"weightbl":59,"educlvl":13,"disonsdt":"2010-09-24","durdis":26.9,"durdsgr1":">=12","visit1dt":"2012-12-21","rfstdtc":"2012-12-29","rfendtc":"2013-06-28","visnumen":12,"rfendt":"2013-06-28","dcdecod":"COMPLETED","dcreascd":"Completed","mmsetot":18},{"studyid":"CDISCPILOT01","usubjid":"01-708-1347","subjid":"1347","siteid":"708","sitegr1":"708","arm":"Xanomeline High Dose","trt01p":"Xanomeline High Dose","trt01pn":81,"trt01a":"Xanomeline High Dose","trt01an":81,"trtsdt":"2013-04-20","trtedt":"2013-06-18","trtdur":60,"avgdd":74.3,"cumdose":4455,"age":61,"agegr1":"<65","agegr1n":1,"ageu":"YEARS","race":"WHITE","racen":1,"sex":"F","ethnic":"NOT HISPANIC OR LATINO","saffl":"Y","ittfl":"Y","efffl":"Y","comp8fl":"Y","comp16fl":"N","comp24fl":"N","disconfl":"Y","dsraefl":"Y","dthfl":"","bmibl":29.2,"bmiblgr1":"25-<30","heightbl":160,"weightbl":74.8,"educlvl":12,"disonsdt":"2009-05-23","durdis":46.7,"durdsgr1":">=12","visit1dt":"2013-04-11","rfstdtc":"2013-04-20","rfendtc":"2013-06-18","visnumen":9,"rfendt":"2013-06-18","dcdecod":"ADVERSE EVENT","dcreascd":"Adverse Event","mmsetot":22},{"studyid":"CDISCPILOT01","usubjid":"01-708-1348","subjid":"1348","siteid":"708","sitegr1":"708","arm":"Xanomeline Low Dose","trt01p":"Xanomeline Low Dose","trt01pn":54,"trt01a":"Xanomeline Low Dose","trt01an":54,"trtsdt":"2013-08-05","trtedt":"2014-02-13","trtdur":193,"avgdd":54,"cumdose":10422,"age":79,"agegr1":"65-80","agegr1n":2,"ageu":"YEARS","race":"WHITE","racen":1,"sex":"F","ethnic":"NOT HISPANIC OR LATINO","saffl":"Y","ittfl":"Y","efffl":"Y","comp8fl":"Y","comp16fl":"Y","comp24fl":"Y","disconfl":"","dsraefl":"","dthfl":"","bmibl":23.6,"bmiblgr1":"<25","heightbl":160,"weightbl":60.3,"educlvl":12,"disonsdt":"2010-07-29","durdis":36,"durdsgr1":">=12","visit1dt":"2013-07-28","rfstdtc":"2013-08-05","rfendtc":"2014-02-13","visnumen":12,"rfendt":"2014-02-13","dcdecod":"COMPLETED","dcreascd":"Completed","mmsetot":13},{"studyid":"CDISCPILOT01","usubjid":"01-708-1353","subjid":"1353","siteid":"708","sitegr1":"708","arm":"Xanomeline Low Dose","trt01p":"Xanomeline Low Dose","trt01pn":54,"trt01a":"Xanomeline Low Dose","trt01an":54,"trtsdt":"2013-07-04","trtedt":"2013-08-28","trtdur":56,"avgdd":54,"cumdose":3024,"age":87,"agegr1":">80","agegr1n":3,"ageu":"YEARS","race":"BLACK OR AFRICAN AMERICAN","racen":2,"sex":"F","ethnic":"NOT HISPANIC OR LATINO","saffl":"Y","ittfl":"Y","efffl":"Y","comp8fl":"Y","comp16fl":"N","comp24fl":"N","disconfl":"Y","dsraefl":"Y","dthfl":"","bmibl":20.3,"bmiblgr1":"<25","heightbl":157.5,"weightbl":50.4,"educlvl":16,"disonsdt":"2010-08-06","durdis":34.4,"durdsgr1":">=12","visit1dt":"2013-06-17","rfstdtc":"2013-07-04","rfendtc":"2013-09-10","visnumen":8,"rfendt":"2013-09-10","dcdecod":"ADVERSE EVENT","dcreascd":"Adverse Event","mmsetot":16},{"studyid":"CDISCPILOT01","usubjid":"01-708-1372","subjid":"1372","siteid":"708","sitegr1":"708","arm":"Xanomeline High Dose","trt01p":"Xanomeline High Dose","trt01pn":81,"trt01a":"Xanomeline High Dose","trt01an":81,"trtsdt":"2013-04-12","trtedt":"2013-04-19","trtdur":8,"avgdd":54,"cumdose":432,"age":84,"agegr1":">80","agegr1n":3,"ageu":"YEARS","race":"WHITE","racen":1,"sex":"M","ethnic":"NOT HISPANIC OR LATINO","saffl":"Y","ittfl":"Y","efffl":"N","comp8fl":"N","comp16fl":"N","comp24fl":"N","disconfl":"Y","dsraefl":"","dthfl":"","bmibl":30.7,"bmiblgr1":">=30","heightbl":170.2,"weightbl":88.9,"educlvl":8,"disonsdt":"2007-09-17","durdis":66.6,"durdsgr1":">=12","visit1dt":"2013-04-03","rfstdtc":"2013-04-12","rfendtc":"2013-05-10","visnumen":4,"rfendt":"2013-05-10","dcdecod":"PROTOCOL VIOLATION","dcreascd":"I/E Not Met","mmsetot":17},{"studyid":"CDISCPILOT01","usubjid":"01-708-1378","subjid":"1378","siteid":"708","sitegr1":"708","arm":"Placebo","trt01p":"Placebo","trt01pn":0,"trt01a":"Placebo","trt01an":0,"trtsdt":"2013-09-03","trtedt":"2014-01-28","trtdur":148,"avgdd":0,"cumdose":0,"age":67,"agegr1":"65-80","agegr1n":2,"ageu":"YEARS","race":"BLACK OR AFRICAN AMERICAN","racen":2,"sex":"M","ethnic":"NOT HISPANIC OR LATINO","saffl":"Y","ittfl":"Y","efffl":"Y","comp8fl":"Y","comp16fl":"Y","comp24fl":"N","disconfl":"Y","dsraefl":"","dthfl":"","bmibl":24.3,"bmiblgr1":"<25","heightbl":170.2,"weightbl":70.3,"educlvl":13,"disonsdt":"2009-03-16","durdis":53.3,"durdsgr1":">=12","visit1dt":"2013-08-24","rfstdtc":"2013-09-03","rfendtc":"2014-01-28","visnumen":11,"rfendt":"2014-01-28","dcdecod":"STUDY TERMINATED BY SPONSOR","dcreascd":"Sponsor Decision","mmsetot":20},{"studyid":"CDISCPILOT01","usubjid":"01-708-1406","subjid":"1406","siteid":"708","sitegr1":"708","arm":"Xanomeline High Dose","trt01p":"Xanomeline High Dose","trt01pn":81,"trt01a":"Xanomeline High Dose","trt01an":81,"trtsdt":"2013-12-26","trtedt":"2014-07-02","trtdur":189,"avgdd":76.6,"cumdose":14472,"age":71,"agegr1":"65-80","agegr1n":2,"ageu":"YEARS","race":"WHITE","racen":1,"sex":"F","ethnic":"NOT HISPANIC OR LATINO","saffl":"Y","ittfl":"Y","efffl":"Y","comp8fl":"Y","comp16fl":"Y","comp24fl":"Y","disconfl":"","dsraefl":"","dthfl":"","bmibl":22.1,"bmiblgr1":"<25","heightbl":157.5,"weightbl":54.9,"educlvl":13,"disonsdt":"2010-06-24","durdis":41.5,"durdsgr1":">=12","visit1dt":"2013-12-06","rfstdtc":"2013-12-26","rfendtc":"2014-07-02","visnumen":12,"rfendt":"2014-07-02","dcdecod":"COMPLETED","dcreascd":"Completed","mmsetot":15},{"studyid":"CDISCPILOT01","usubjid":"01-708-1428","subjid":"1428","siteid":"708","sitegr1":"708","arm":"Xanomeline Low Dose","trt01p":"Xanomeline Low Dose","trt01pn":54,"trt01a":"Xanomeline Low Dose","trt01an":54,"trtsdt":"2013-11-09","trtedt":"2013-12-14","trtdur":36,"avgdd":54,"cumdose":1944,"age":84,"agegr1":">80","agegr1n":3,"ageu":"YEARS","race":"WHITE","racen":1,"sex":"F","ethnic":"NOT HISPANIC OR LATINO","saffl":"Y","ittfl":"Y","efffl":"Y","comp8fl":"Y","comp16fl":"N","comp24fl":"N","disconfl":"Y","dsraefl":"Y","dthfl":"","bmibl":23.8,"bmiblgr1":"<25","heightbl":157.5,"weightbl":59,"educlvl":8,"disonsdt":"2010-10-27","durdis":36.2,"durdsgr1":">=12","visit1dt":"2013-11-02","rfstdtc":"2013-11-09","rfendtc":"2014-01-31","visnumen":8,"rfendt":"2014-01-31","dcdecod":"ADVERSE EVENT","dcreascd":"Adverse Event","mmsetot":19},{"studyid":"CDISCPILOT01","usubjid":"01-709-1001","subjid":"1001","siteid":"709","sitegr1":"709","arm":"Placebo","trt01p":"Placebo","trt01pn":0,"trt01a":"Placebo","trt01an":0,"trtsdt":"2013-10-08","trtedt":"2014-04-08","trtdur":183,"avgdd":0,"cumdose":0,"age":76,"agegr1":"65-80","agegr1n":2,"ageu":"YEARS","race":"WHITE","racen":1,"sex":"F","ethnic":"NOT HISPANIC OR LATINO","saffl":"Y","ittfl":"Y","efffl":"Y","comp8fl":"Y","comp16fl":"Y","comp24fl":"Y","disconfl":"","dsraefl":"","dthfl":"","bmibl":25.2,"bmiblgr1":"25-<30","heightbl":170.2,"weightbl":73,"educlvl":12,"disonsdt":"2011-01-30","durdis":31.7,"durdsgr1":">=12","visit1dt":"2013-09-20","rfstdtc":"2013-10-08","rfendtc":"2014-04-08","visnumen":12,"rfendt":"2014-04-08","dcdecod":"COMPLETED","dcreascd":"Completed","mmsetot":15},{"studyid":"CDISCPILOT01","usubjid":"01-709-1007","subjid":"1007","siteid":"709","sitegr1":"709","arm":"Xanomeline Low Dose","trt01p":"Xanomeline Low Dose","trt01pn":54,"trt01a":"Xanomeline Low Dose","trt01an":54,"trtsdt":"2012-07-31","trtedt":"2012-08-28","trtdur":29,"avgdd":54,"cumdose":1566,"age":54,"agegr1":"<65","agegr1n":1,"ageu":"YEARS","race":"WHITE","racen":1,"sex":"F","ethnic":"NOT HISPANIC OR LATINO","saffl":"Y","ittfl":"Y","efffl":"N","comp8fl":"N","comp16fl":"N","comp24fl":"N","disconfl":"Y","dsraefl":"Y","dthfl":"","bmibl":23.8,"bmiblgr1":"<25","heightbl":158.8,"weightbl":59.9,"educlvl":21,"disonsdt":"2007-02-28","durdis":64.8,"durdsgr1":">=12","visit1dt":"2012-07-21","rfstdtc":"2012-07-31","rfendtc":"2012-09-01","visnumen":5,"rfendt":"2012-09-01","dcdecod":"ADVERSE EVENT","dcreascd":"Adverse Event","mmsetot":10},{"studyid":"CDISCPILOT01","usubjid":"01-709-1020","subjid":"1020","siteid":"709","sitegr1":"709","arm":"Xanomeline Low Dose","trt01p":"Xanomeline Low Dose","trt01pn":54,"trt01a":"Xanomeline Low Dose","trt01an":54,"trtsdt":"2012-12-01","trtedt":"2013-06-01","trtdur":183,"avgdd":54,"cumdose":9882,"age":72,"agegr1":"65-80","agegr1n":2,"ageu":"YEARS","race":"WHITE","racen":1,"sex":"F","ethnic":"NOT HISPANIC OR LATINO","saffl":"Y","ittfl":"Y","efffl":"Y","comp8fl":"Y","comp16fl":"Y","comp24fl":"Y","disconfl":"","dsraefl":"","dthfl":"","bmibl":25.9,"bmiblgr1":"25-<30","heightbl":144.8,"weightbl":54.4,"educlvl":12,"disonsdt":"2009-02-26","durdis":44.9,"durdsgr1":">=12","visit1dt":"2012-11-22","rfstdtc":"2012-12-01","rfendtc":"2013-06-01","visnumen":12,"rfendt":"2013-06-01","dcdecod":"COMPLETED","dcreascd":"Completed","mmsetot":15},{"studyid":"CDISCPILOT01","usubjid":"01-709-1029","subjid":"1029","siteid":"709","sitegr1":"709","arm":"Xanomeline High Dose","trt01p":"Xanomeline High Dose","trt01pn":81,"trt01a":"Xanomeline High Dose","trt01an":81,"trtsdt":"2012-12-25","trtedt":"2013-06-26","trtdur":184,"avgdd":76.6,"cumdose":14094,"age":82,"agegr1":">80","agegr1n":3,"ageu":"YEARS","race":"WHITE","racen":1,"sex":"M","ethnic":"NOT HISPANIC OR LATINO","saffl":"Y","ittfl":"Y","efffl":"Y","comp8fl":"Y","comp16fl":"Y","comp24fl":"Y","disconfl":"","dsraefl":"","dthfl":"","bmibl":23.1,"bmiblgr1":"<25","heightbl":172.7,"weightbl":69,"educlvl":20,"disonsdt":"2009-06-02","durdis":42.3,"durdsgr1":">=12","visit1dt":"2012-12-10","rfstdtc":"2012-12-25","rfendtc":"2013-06-26","visnumen":12,"rfendt":"2013-06-26","dcdecod":"COMPLETED","dcreascd":"Completed","mmsetot":16},{"studyid":"CDISCPILOT01","usubjid":"01-709-1081","subjid":"1081","siteid":"709","sitegr1":"709","arm":"Xanomeline Low Dose","trt01p":"Xanomeline Low Dose","trt01pn":54,"trt01a":"Xanomeline Low Dose","trt01an":54,"trtsdt":"2014-01-18","trtedt":"2014-04-27","trtdur":100,"avgdd":54,"cumdose":5400,"age":86,"agegr1":">80","agegr1n":3,"ageu":"YEARS","race":"WHITE","racen":1,"sex":"F","ethnic":"NOT HISPANIC OR LATINO","saffl":"Y","ittfl":"Y","efffl":"Y","comp8fl":"Y","comp16fl":"Y","comp24fl":"N","disconfl":"Y","dsraefl":"Y","dthfl":"","bmibl":23.5,"bmiblgr1":"<25","heightbl":154.9,"weightbl":56.5,"educlvl":9,"disonsdt":"2011-08-06","durdis":29.2,"durdsgr1":">=12","visit1dt":"2014-01-09","rfstdtc":"2014-01-18","rfendtc":"2014-05-10","visnumen":10,"rfendt":"2014-05-10","dcdecod":"ADVERSE EVENT","dcreascd":"Adverse Event","mmsetot":21},{"studyid":"CDISCPILOT01","usubjid":"01-709-1088","subjid":"1088","siteid":"709","sitegr1":"709","arm":"Placebo","trt01p":"Placebo","trt01pn":0,"trt01a":"Placebo","trt01an":0,"trtsdt":"2014-04-12","trtedt":"2014-10-09","trtdur":181,"avgdd":0,"cumdose":0,"age":69,"agegr1":"65-80","agegr1n":2,"ageu":"YEARS","race":"WHITE","racen":1,"sex":"M","ethnic":"NOT HISPANIC OR LATINO","saffl":"Y","ittfl":"Y","efffl":"Y","comp8fl":"Y","comp16fl":"Y","comp24fl":"Y","disconfl":"","dsraefl":"","dthfl":"","bmibl":24.8,"bmiblgr1":"<25","heightbl":179.1,"weightbl":79.4,"educlvl":16,"disonsdt":"2012-02-25","durdis":25.1,"durdsgr1":">=12","visit1dt":"2014-03-30","rfstdtc":"2014-04-12","rfendtc":"2014-10-09","visnumen":12,"rfendt":"2014-10-09","dcdecod":"COMPLETED","dcreascd":"Completed","mmsetot":23},{"studyid":"CDISCPILOT01","usubjid":"01-709-1099","subjid":"1099","siteid":"709","sitegr1":"709","arm":"Xanomeline High Dose","trt01p":"Xanomeline High Dose","trt01pn":81,"trt01a":"Xanomeline High Dose","trt01an":81,"trtsdt":"2013-10-25","trtedt":"2014-04-25","trtdur":183,"avgdd":76.1,"cumdose":13932,"age":79,"agegr1":"65-80","agegr1n":2,"ageu":"YEARS","race":"WHITE","racen":1,"sex":"F","ethnic":"NOT HISPANIC OR LATINO","saffl":"Y","ittfl":"Y","efffl":"Y","comp8fl":"Y","comp16fl":"Y","comp24fl":"Y","disconfl":"","dsraefl":"","dthfl":"","bmibl":19.6,"bmiblgr1":"<25","heightbl":165.1,"weightbl":53.5,"educlvl":12,"disonsdt":"2009-04-20","durdis":53.8,"durdsgr1":">=12","visit1dt":"2013-10-14","rfstdtc":"2013-10-25","rfendtc":"2014-04-25","visnumen":12,"rfendt":"2014-04-25","dcdecod":"COMPLETED","dcreascd":"Completed","mmsetot":11},{"studyid":"CDISCPILOT01","usubjid":"01-709-1102","subjid":"1102","siteid":"709","sitegr1":"709","arm":"Xanomeline Low Dose","trt01p":"Xanomeline Low Dose","trt01pn":54,"trt01a":"Xanomeline Low Dose","trt01an":54,"trtsdt":"2013-01-15","trtedt":"2013-03-27","trtdur":72,"avgdd":54,"cumdose":3888,"age":71,"agegr1":"65-80","agegr1n":2,"ageu":"YEARS","race":"WHITE","racen":1,"sex":"F","ethnic":"NOT HISPANIC OR LATINO","saffl":"Y","ittfl":"Y","efffl":"Y","comp8fl":"Y","comp16fl":"N","comp24fl":"N","disconfl":"Y","dsraefl":"Y","dthfl":"","bmibl":32.1,"bmiblgr1":">=30","heightbl":166.4,"weightbl":88.9,"educlvl":14,"disonsdt":"2009-07-13","durdis":41.9,"durdsgr1":">=12","visit1dt":"2013-01-07","rfstdtc":"2013-01-15","rfendtc":"2013-03-31","visnumen":9,"rfendt":"2013-03-31","dcdecod":"ADVERSE EVENT","dcreascd":"Adverse Event","mmsetot":16},{"studyid":"CDISCPILOT01","usubjid":"01-709-1168","subjid":"1168","siteid":"709","sitegr1":"709","arm":"Xanomeline High Dose","trt01p":"Xanomeline High Dose","trt01pn":81,"trt01a":"Xanomeline High Dose","trt01an":81,"trtsdt":"2013-08-02","trtedt":"2013-09-26","trtdur":56,"avgdd":73.3,"cumdose":4104,"age":72,"agegr1":"65-80","agegr1n":2,"ageu":"YEARS","race":"WHITE","racen":1,"sex":"F","ethnic":"NOT HISPANIC OR LATINO","saffl":"Y","ittfl":"Y","efffl":"Y","comp8fl":"Y","comp16fl":"N","comp24fl":"N","disconfl":"Y","dsraefl":"Y","dthfl":"","bmibl":27.6,"bmiblgr1":"25-<30","heightbl":149.9,"weightbl":62.1,"educlvl":12,"disonsdt":"2009-10-29","durdis":44.9,"durdsgr1":">=12","visit1dt":"2013-07-25","rfstdtc":"2013-08-02","rfendtc":"2013-09-27","visnumen":8,"rfendt":"2013-09-27","dcdecod":"ADVERSE EVENT","dcreascd":"Adverse Event","mmsetot":20},{"studyid":"CDISCPILOT01","usubjid":"01-709-1217","subjid":"1217","siteid":"709","sitegr1":"709","arm":"Xanomeline Low Dose","trt01p":"Xanomeline Low Dose","trt01pn":54,"trt01a":"Xanomeline Low Dose","trt01an":54,"trtsdt":"2013-03-04","trtedt":"2013-06-11","trtdur":100,"avgdd":54,"cumdose":5400,"age":77,"agegr1":"65-80","agegr1n":2,"ageu":"YEARS","race":"WHITE","racen":1,"sex":"M","ethnic":"NOT HISPANIC OR LATINO","saffl":"Y","ittfl":"Y","efffl":"Y","comp8fl":"Y","comp16fl":"Y","comp24fl":"N","disconfl":"Y","dsraefl":"Y","dthfl":"","bmibl":23.1,"bmiblgr1":"<25","heightbl":171.5,"weightbl":68,"educlvl":6,"disonsdt":"2008-10-11","durdis":52.2,"durdsgr1":">=12","visit1dt":"2013-02-16","rfstdtc":"2013-03-04","rfendtc":"2013-06-25","visnumen":10,"rfendt":"2013-06-25","dcdecod":"ADVERSE EVENT","dcreascd":"Adverse Event","mmsetot":14},{"studyid":"CDISCPILOT01","usubjid":"01-709-1238","subjid":"1238","siteid":"709","sitegr1":"709","arm":"Xanomeline High Dose","trt01p":"Xanomeline High Dose","trt01pn":81,"trt01a":"Xanomeline High Dose","trt01an":81,"trtsdt":"2013-05-15","trtedt":"2013-08-06","trtdur":84,"avgdd":76.2,"cumdose":6399,"age":69,"agegr1":"65-80","agegr1n":2,"ageu":"YEARS","race":"WHITE","racen":1,"sex":"M","ethnic":"NOT HISPANIC OR LATINO","saffl":"Y","ittfl":"Y","efffl":"Y","comp8fl":"Y","comp16fl":"N","comp24fl":"N","disconfl":"Y","dsraefl":"Y","dthfl":"","bmibl":28.5,"bmiblgr1":"25-<30","heightbl":170.2,"weightbl":82.6,"educlvl":8,"disonsdt":"2011-10-13","durdis":18.7,"durdsgr1":">=12","visit1dt":"2013-05-02","rfstdtc":"2013-05-15","rfendtc":"2013-08-07","visnumen":9,"rfendt":"2013-08-07","dcdecod":"ADVERSE EVENT","dcreascd":"Adverse Event","mmsetot":24},{"studyid":"CDISCPILOT01","usubjid":"01-709-1259","subjid":"1259","siteid":"709","sitegr1":"709","arm":"Placebo","trt01p":"Placebo","trt01pn":0,"trt01a":"Placebo","trt01an":0,"trtsdt":"2013-01-26","trtedt":"2013-06-13","trtdur":139,"avgdd":0,"cumdose":0,"age":82,"agegr1":">80","agegr1n":3,"ageu":"YEARS","race":"WHITE","racen":1,"sex":"M","ethnic":"NOT HISPANIC OR LATINO","saffl":"Y","ittfl":"Y","efffl":"Y","comp8fl":"Y","comp16fl":"Y","comp24fl":"N","disconfl":"Y","dsraefl":"","dthfl":"","bmibl":21.9,"bmiblgr1":"<25","heightbl":172.7,"weightbl":65.3,"educlvl":18,"disonsdt":"2008-08-06","durdis":53.3,"durdsgr1":">=12","visit1dt":"2013-01-13","rfstdtc":"2013-01-26","rfendtc":"2013-06-13","visnumen":11,"rfendt":"2013-06-13","dcdecod":"LACK OF EFFICACY","dcreascd":"Lack of Efficacy","mmsetot":20},{"studyid":"CDISCPILOT01","usubjid":"01-709-1285","subjid":"1285","siteid":"709","sitegr1":"709","arm":"Xanomeline Low Dose","trt01p":"Xanomeline Low Dose","trt01pn":54,"trt01a":"Xanomeline Low Dose","trt01an":54,"trtsdt":"2013-03-24","trtedt":"2013-05-23","trtdur":61,"avgdd":54,"cumdose":3294,"age":87,"agegr1":">80","agegr1n":3,"ageu":"YEARS","race":"WHITE","racen":1,"sex":"M","ethnic":"NOT HISPANIC OR LATINO","saffl":"Y","ittfl":"Y","efffl":"Y","comp8fl":"Y","comp16fl":"N","comp24fl":"N","disconfl":"Y","dsraefl":"","dthfl":"","bmibl":23.1,"bmiblgr1":"<25","heightbl":167.6,"weightbl":64.9,"educlvl":6,"disonsdt":"2009-09-18","durdis":42,"durdsgr1":">=12","visit1dt":"2013-03-17","rfstdtc":"2013-03-24","rfendtc":"2013-05-31","visnumen":9,"rfendt":"2013-05-31","dcdecod":"STUDY TERMINATED BY SPONSOR","dcreascd":"Sponsor Decision","mmsetot":16},{"studyid":"CDISCPILOT01","usubjid":"01-709-1301","subjid":"1301","siteid":"709","sitegr1":"709","arm":"Placebo","trt01p":"Placebo","trt01pn":0,"trt01a":"Placebo","trt01an":0,"trtsdt":"2013-07-19","trtedt":"2014-01-17","trtdur":183,"avgdd":0,"cumdose":0,"age":62,"agegr1":"<65","agegr1n":1,"ageu":"YEARS","race":"WHITE","racen":1,"sex":"F","ethnic":"NOT HISPANIC OR LATINO","saffl":"Y","ittfl":"Y","efffl":"Y","comp8fl":"Y","comp16fl":"Y","comp24fl":"Y","disconfl":"","dsraefl":"","dthfl":"","bmibl":23.6,"bmiblgr1":"<25","heightbl":146.1,"weightbl":50.4,"educlvl":10,"disonsdt":"2009-02-04","durdis":53.3,"durdsgr1":">=12","visit1dt":"2013-07-14","rfstdtc":"2013-07-19","rfendtc":"2014-01-17","visnumen":12,"rfendt":"2014-01-17","dcdecod":"COMPLETED","dcreascd":"Completed","mmsetot":10},{"studyid":"CDISCPILOT01","usubjid":"01-709-1306","subjid":"1306","siteid":"709","sitegr1":"709","arm":"Placebo","trt01p":"Placebo","trt01pn":0,"trt01a":"Placebo","trt01an":0,"trtsdt":"2014-02-03","trtedt":"2014-06-16","trtdur":134,"avgdd":0,"cumdose":0,"age":60,"agegr1":"<65","agegr1n":1,"ageu":"YEARS","race":"WHITE","racen":1,"sex":"F","ethnic":"NOT HISPANIC OR LATINO","saffl":"Y","ittfl":"Y","efffl":"Y","comp8fl":"Y","comp16fl":"Y","comp24fl":"N","disconfl":"Y","dsraefl":"Y","dthfl":"","bmibl":18.5,"bmiblgr1":"<25","heightbl":154.9,"weightbl":44.5,"educlvl":12,"disonsdt":"2009-02-02","durdis":59.6,"durdsgr1":">=12","visit1dt":"2014-01-19","rfstdtc":"2014-02-03","rfendtc":"2014-06-25","visnumen":11,"rfendt":"2014-06-25","dcdecod":"ADVERSE EVENT","dcreascd":"Adverse Event","mmsetot":21},{"studyid":"CDISCPILOT01","usubjid":"01-709-1309","subjid":"1309","siteid":"709","sitegr1":"709","arm":"Xanomeline High Dose","trt01p":"Xanomeline High Dose","trt01pn":81,"trt01a":"Xanomeline High Dose","trt01an":81,"trtsdt":"2013-06-19","trtedt":"2013-12-19","trtdur":184,"avgdd":77,"cumdose":14175,"age":65,"agegr1":"65-80","agegr1n":2,"ageu":"YEARS","race":"WHITE","racen":1,"sex":"M","ethnic":"NOT HISPANIC OR LATINO","saffl":"Y","ittfl":"Y","efffl":"Y","comp8fl":"Y","comp16fl":"Y","comp24fl":"Y","disconfl":"","dsraefl":"","dthfl":"","bmibl":24.8,"bmiblgr1":"<25","heightbl":177.8,"weightbl":78.5,"educlvl":16,"disonsdt":"2009-12-21","durdis":41.6,"durdsgr1":">=12","visit1dt":"2013-06-09","rfstdtc":"2013-06-19","rfendtc":"2013-12-19","visnumen":12,"rfendt":"2013-12-19","dcdecod":"COMPLETED","dcreascd":"Completed","mmsetot":17},{"studyid":"CDISCPILOT01","usubjid":"01-709-1312","subjid":"1312","siteid":"709","sitegr1":"709","arm":"Placebo","trt01p":"Placebo","trt01pn":0,"trt01a":"Placebo","trt01an":0,"trtsdt":"2014-04-20","trtedt":"2014-10-19","trtdur":183,"avgdd":0,"cumdose":0,"age":68,"agegr1":"65-80","agegr1n":2,"ageu":"YEARS","race":"WHITE","racen":1,"sex":"F","ethnic":"NOT HISPANIC OR LATINO","saffl":"Y","ittfl":"Y","efffl":"Y","comp8fl":"Y","comp16fl":"Y","comp24fl":"Y","disconfl":"","dsraefl":"","dthfl":"","bmibl":20.9,"bmiblgr1":"<25","heightbl":160,"weightbl":53.5,"educlvl":13,"disonsdt":"2010-07-30","durdis":44.5,"durdsgr1":">=12","visit1dt":"2014-04-13","rfstdtc":"2014-04-20","rfendtc":"2014-10-19","visnumen":12,"rfendt":"2014-10-19","dcdecod":"COMPLETED","dcreascd":"Completed","mmsetot":14},{"studyid":"CDISCPILOT01","usubjid":"01-709-1326","subjid":"1326","siteid":"709","sitegr1":"709","arm":"Xanomeline Low Dose","trt01p":"Xanomeline Low Dose","trt01pn":54,"trt01a":"Xanomeline Low Dose","trt01an":54,"trtsdt":"2013-04-05","trtedt":"2013-10-02","trtdur":181,"avgdd":54,"cumdose":9774,"age":75,"agegr1":"65-80","agegr1n":2,"ageu":"YEARS","race":"WHITE","racen":1,"sex":"F","ethnic":"NOT HISPANIC OR LATINO","saffl":"Y","ittfl":"Y","efffl":"Y","comp8fl":"Y","comp16fl":"Y","comp24fl":"Y","disconfl":"","dsraefl":"","dthfl":"","bmibl":28.7,"bmiblgr1":"25-<30","heightbl":161.3,"weightbl":74.8,"educlvl":16,"disonsdt":"2010-09-19","durdis":30.1,"durdsgr1":">=12","visit1dt":"2013-03-21","rfstdtc":"2013-04-05","rfendtc":"2013-10-02","visnumen":12,"rfendt":"2013-10-02","dcdecod":"COMPLETED","dcreascd":"Completed","mmsetot":11},{"studyid":"CDISCPILOT01","usubjid":"01-709-1329","subjid":"1329","siteid":"709","sitegr1":"709","arm":"Xanomeline High Dose","trt01p":"Xanomeline High Dose","trt01pn":81,"trt01a":"Xanomeline High Dose","trt01an":81,"trtsdt":"2013-08-15","trtedt":"2013-08-25","trtdur":11,"avgdd":54,"cumdose":594,"age":70,"agegr1":"65-80","agegr1n":2,"ageu":"YEARS","race":"WHITE","racen":1,"sex":"M","ethnic":"NOT HISPANIC OR LATINO","saffl":"Y","ittfl":"Y","efffl":"Y","comp8fl":"N","comp16fl":"N","comp24fl":"N","disconfl":"Y","dsraefl":"","dthfl":"","bmibl":26.5,"bmiblgr1":"25-<30","heightbl":170.2,"weightbl":76.7,"educlvl":16,"disonsdt":"2009-03-08","durdis":52.8,"durdsgr1":">=12","visit1dt":"2013-08-01","rfstdtc":"2013-08-15","rfendtc":"2013-08-29","visnumen":4,"rfendt":"2013-08-29","dcdecod":"WITHDRAWAL BY SUBJECT","dcreascd":"Withdrew Consent","mmsetot":10},{"studyid":"CDISCPILOT01","usubjid":"01-709-1339","subjid":"1339","siteid":"709","sitegr1":"709","arm":"Placebo","trt01p":"Placebo","trt01pn":0,"trt01a":"Placebo","trt01an":0,"trtsdt":"2012-12-23","trtedt":"2013-06-24","trtdur":184,"avgdd":0,"cumdose":0,"age":81,"agegr1":">80","agegr1n":3,"ageu":"YEARS","race":"WHITE","racen":1,"sex":"M","ethnic":"NOT HISPANIC OR LATINO","saffl":"Y","ittfl":"Y","efffl":"Y","comp8fl":"Y","comp16fl":"Y","comp24fl":"Y","disconfl":"","dsraefl":"","dthfl":"","bmibl":25.4,"bmiblgr1":"25-<30","heightbl":175.3,"weightbl":78,"educlvl":16,"disonsdt":"2010-03-03","durdis":33.5,"durdsgr1":">=12","visit1dt":"2012-12-15","rfstdtc":"2012-12-23","rfendtc":"2013-06-24","visnumen":12,"rfendt":"2013-06-24","dcdecod":"COMPLETED","dcreascd":"Completed","mmsetot":23},{"studyid":"CDISCPILOT01","usubjid":"01-709-1424","subjid":"1424","siteid":"709","sitegr1":"709","arm":"Xanomeline High Dose","trt01p":"Xanomeline High Dose","trt01pn":81,"trt01a":"Xanomeline High Dose","trt01an":81,"trtsdt":"2013-03-03","trtedt":"2013-03-07","trtdur":5,"avgdd":54,"cumdose":270,"age":77,"agegr1":"65-80","agegr1n":2,"ageu":"YEARS","race":"WHITE","racen":1,"sex":"M","ethnic":"NOT HISPANIC OR LATINO","saffl":"Y","ittfl":"Y","efffl":"Y","comp8fl":"N","comp16fl":"N","comp24fl":"N","disconfl":"Y","dsraefl":"Y","dthfl":"","bmibl":22.6,"bmiblgr1":"<25","heightbl":174,"weightbl":68.5,"educlvl":16,"disonsdt":"2007-09-12","durdis":65.2,"durdsgr1":">=12","visit1dt":"2013-02-15","rfstdtc":"2013-03-03","rfendtc":"2013-03-08","visnumen":4,"rfendt":"2013-03-08","dcdecod":"ADVERSE EVENT","dcreascd":"Adverse Event","mmsetot":18},{"studyid":"CDISCPILOT01","usubjid":"01-710-1002","subjid":"1002","siteid":"710","sitegr1":"710","arm":"Xanomeline Low Dose","trt01p":"Xanomeline Low Dose","trt01pn":54,"trt01a":"Xanomeline Low Dose","trt01an":54,"trtsdt":"2014-01-14","trtedt":"2014-01-18","trtdur":5,"avgdd":54,"cumdose":270,"age":88,"agegr1":">80","agegr1n":3,"ageu":"YEARS","race":"WHITE","racen":1,"sex":"M","ethnic":"NOT HISPANIC OR LATINO","saffl":"Y","ittfl":"Y","efffl":"Y","comp8fl":"N","comp16fl":"N","comp24fl":"N","disconfl":"Y","dsraefl":"Y","dthfl":"","bmibl":25.8,"bmiblgr1":"25-<30","heightbl":165.1,"weightbl":70.3,"educlvl":12,"disonsdt":"2008-01-08","durdis":71.8,"durdsgr1":">=12","visit1dt":"2013-12-30","rfstdtc":"2014-01-14","rfendtc":"2014-01-18","visnumen":4,"rfendt":"2014-01-18","dcdecod":"ADVERSE EVENT","dcreascd":"Adverse Event","mmsetot":17},{"studyid":"CDISCPILOT01","usubjid":"01-710-1006","subjid":"1006","siteid":"710","sitegr1":"710","arm":"Xanomeline High Dose","trt01p":"Xanomeline High Dose","trt01pn":81,"trt01a":"Xanomeline High Dose","trt01an":81,"trtsdt":"2013-02-10","trtedt":"2013-08-09","trtdur":181,"avgdd":77.1,"cumdose":13959,"age":77,"agegr1":"65-80","agegr1n":2,"ageu":"YEARS","race":"WHITE","racen":1,"sex":"M","ethnic":"NOT HISPANIC OR LATINO","saffl":"Y","ittfl":"Y","efffl":"Y","comp8fl":"Y","comp16fl":"Y","comp24fl":"Y","disconfl":"","dsraefl":"","dthfl":"","bmibl":25.1,"bmiblgr1":"25-<30","heightbl":170.2,"weightbl":72.6,"educlvl":12,"disonsdt":"2012-02-10","durdis":11.6,"durdsgr1":"<12","visit1dt":"2013-01-27","rfstdtc":"2013-02-10","rfendtc":"2013-08-10","visnumen":12,"rfendt":"2013-08-10","dcdecod":"COMPLETED","dcreascd":"Completed","mmsetot":12},{"studyid":"CDISCPILOT01","usubjid":"01-710-1021","subjid":"1021","siteid":"710","sitegr1":"710","arm":"Xanomeline High Dose","trt01p":"Xanomeline High Dose","trt01pn":81,"trt01a":"Xanomeline High Dose","trt01an":81,"trtsdt":"2013-09-27","trtedt":"2013-10-29","trtdur":33,"avgdd":68.7,"cumdose":2268,"age":79,"agegr1":"65-80","agegr1n":2,"ageu":"YEARS","race":"BLACK OR AFRICAN AMERICAN","racen":2,"sex":"M","ethnic":"NOT HISPANIC OR LATINO","saffl":"Y","ittfl":"Y","efffl":"N","comp8fl":"N","comp16fl":"N","comp24fl":"N","disconfl":"Y","dsraefl":"Y","dthfl":"","bmibl":21.3,"bmiblgr1":"<25","heightbl":162.6,"weightbl":56.3,"educlvl":8,"disonsdt":"2012-07-09","durdis":14.4,"durdsgr1":">=12","visit1dt":"2013-09-19","rfstdtc":"2013-09-27","rfendtc":"2013-11-12","visnumen":7,"rfendt":"2013-11-12","dcdecod":"ADVERSE EVENT","dcreascd":"Adverse Event","mmsetot":11},{"studyid":"CDISCPILOT01","usubjid":"01-710-1027","subjid":"1027","siteid":"710","sitegr1":"710","arm":"Placebo","trt01p":"Placebo","trt01pn":0,"trt01a":"Placebo","trt01an":0,"trtsdt":"2014-02-28","trtedt":"2014-08-29","trtdur":183,"avgdd":0,"cumdose":0,"age":83,"agegr1":">80","agegr1n":3,"ageu":"YEARS","race":"WHITE","racen":1,"sex":"M","ethnic":"NOT HISPANIC OR LATINO","saffl":"Y","ittfl":"Y","efffl":"Y","comp8fl":"Y","comp16fl":"Y","comp24fl":"Y","disconfl":"","dsraefl":"","dthfl":"","bmibl":24.4,"bmiblgr1":"<25","heightbl":170.2,"weightbl":70.8,"educlvl":12,"disonsdt":"2012-02-04","durdis":24,"durdsgr1":">=12","visit1dt":"2014-02-03","rfstdtc":"2014-02-28","rfendtc":"2014-08-29","visnumen":12,"rfendt":"2014-08-29","dcdecod":"COMPLETED","dcreascd":"Completed","mmsetot":20},{"studyid":"CDISCPILOT01","usubjid":"01-710-1045","subjid":"1045","siteid":"710","sitegr1":"710","arm":"Xanomeline Low Dose","trt01p":"Xanomeline Low Dose","trt01pn":54,"trt01a":"Xanomeline Low Dose","trt01an":54,"trtsdt":"2013-06-03","trtedt":"2013-08-13","trtdur":72,"avgdd":54,"cumdose":3888,"age":83,"agegr1":">80","agegr1n":3,"ageu":"YEARS","race":"WHITE","racen":1,"sex":"F","ethnic":"NOT HISPANIC OR LATINO","saffl":"Y","ittfl":"Y","efffl":"Y","comp8fl":"Y","comp16fl":"N","comp24fl":"N","disconfl":"Y","dsraefl":"Y","dthfl":"","bmibl":22,"bmiblgr1":"<25","heightbl":162.6,"weightbl":58.1,"educlvl":12,"disonsdt":"2010-05-12","durdis":36.3,"durdsgr1":">=12","visit1dt":"2013-05-20","rfstdtc":"2013-06-03","rfendtc":"2013-08-17","visnumen":9,"rfendt":"2013-08-17","dcdecod":"ADVERSE EVENT","dcreascd":"Adverse Event","mmsetot":14},{"studyid":"CDISCPILOT01","usubjid":"01-710-1053","subjid":"1053","siteid":"710","sitegr1":"710","arm":"Xanomeline Low Dose","trt01p":"Xanomeline Low Dose","trt01pn":54,"trt01a":"Xanomeline Low Dose","trt01an":54,"trtsdt":"2012-12-26","trtedt":"2013-02-10","trtdur":47,"avgdd":54,"cumdose":2538,"age":84,"agegr1":">80","agegr1n":3,"ageu":"YEARS","race":"WHITE","racen":1,"sex":"F","ethnic":"NOT HISPANIC OR LATINO","saffl":"Y","ittfl":"Y","efffl":"Y","comp8fl":"Y","comp16fl":"N","comp24fl":"N","disconfl":"Y","dsraefl":"Y","dthfl":"","bmibl":20.8,"bmiblgr1":"<25","heightbl":157.5,"weightbl":51.7,"educlvl":12,"disonsdt":"2011-11-04","durdis":13.4,"durdsgr1":">=12","visit1dt":"2012-12-15","rfstdtc":"2012-12-26","rfendtc":"2013-02-15","visnumen":8,"rfendt":"2013-02-15","dcdecod":"ADVERSE EVENT","dcreascd":"Adverse Event","mmsetot":20},{"studyid":"CDISCPILOT01","usubjid":"01-710-1060","subjid":"1060","siteid":"710","sitegr1":"710","arm":"Placebo","trt01p":"Placebo","trt01pn":0,"trt01a":"Placebo","trt01an":0,"trtsdt":"2013-01-01","trtedt":"2013-07-05","trtdur":186,"avgdd":0,"cumdose":0,"age":82,"agegr1":">80","agegr1n":3,"ageu":"YEARS","race":"WHITE","racen":1,"sex":"M","ethnic":"NOT HISPANIC OR LATINO","saffl":"Y","ittfl":"Y","efffl":"Y","comp8fl":"Y","comp16fl":"Y","comp24fl":"Y","disconfl":"","dsraefl":"","dthfl":"","bmibl":21,"bmiblgr1":"<25","heightbl":182.9,"weightbl":70.3,"educlvl":16,"disonsdt":"2010-09-14","durdis":27.4,"durdsgr1":">=12","visit1dt":"2012-12-24","rfstdtc":"2013-01-01","rfendtc":"2013-07-05","visnumen":12,"rfendt":"2013-07-05","dcdecod":"COMPLETED","dcreascd":"Completed","mmsetot":23},{"studyid":"CDISCPILOT01","usubjid":"01-710-1070","subjid":"1070","siteid":"710","sitegr1":"710","arm":"Xanomeline High Dose","trt01p":"Xanomeline High Dose","trt01pn":81,"trt01a":"Xanomeline High Dose","trt01an":81,"trtsdt":"2012-09-08","trtedt":"2013-01-22","trtdur":137,"avgdd":78,"cumdose":10692,"age":85,"agegr1":">80","agegr1n":3,"ageu":"YEARS","race":"WHITE","racen":1,"sex":"F","ethnic":"NOT HISPANIC OR LATINO","saffl":"Y","ittfl":"Y","efffl":"Y","comp8fl":"Y","comp16fl":"Y","comp24fl":"N","disconfl":"Y","dsraefl":"Y","dthfl":"","bmibl":21.8,"bmiblgr1":"<25","heightbl":149.9,"weightbl":49,"educlvl":10,"disonsdt":"2010-09-08","durdis":23.7,"durdsgr1":">=12","visit1dt":"2012-08-28","rfstdtc":"2012-09-08","rfendtc":"2013-02-23","visnumen":11,"rfendt":"2013-02-23","dcdecod":"ADVERSE EVENT","dcreascd":"Adverse Event","mmsetot":10},{"studyid":"CDISCPILOT01","usubjid":"01-710-1077","subjid":"1077","siteid":"710","sitegr1":"710","arm":"Placebo","trt01p":"Placebo","trt01pn":0,"trt01a":"Placebo","trt01an":0,"trtsdt":"2013-11-17","trtedt":"2014-05-18","trtdur":183,"avgdd":0,"cumdose":0,"age":76,"agegr1":"65-80","agegr1n":2,"ageu":"YEARS","race":"WHITE","racen":1,"sex":"F","ethnic":"NOT HISPANIC OR LATINO","saffl":"Y","ittfl":"Y","efffl":"Y","comp8fl":"Y","comp16fl":"Y","comp24fl":"Y","disconfl":"","dsraefl":"","dthfl":"","bmibl":18.5,"bmiblgr1":"<25","heightbl":162.6,"weightbl":49,"educlvl":12,"disonsdt":"2011-06-11","durdis":28.8,"durdsgr1":">=12","visit1dt":"2013-11-03","rfstdtc":"2013-11-17","rfendtc":"2014-05-18","visnumen":12,"rfendt":"2014-05-18","dcdecod":"COMPLETED","dcreascd":"Completed","mmsetot":14},{"studyid":"CDISCPILOT01","usubjid":"01-710-1078","subjid":"1078","siteid":"710","sitegr1":"710","arm":"Placebo","trt01p":"Placebo","trt01pn":0,"trt01a":"Placebo","trt01an":0,"trtsdt":"2013-09-17","trtedt":"2014-03-23","trtdur":188,"avgdd":0,"cumdose":0,"age":81,"agegr1":">80","agegr1n":3,"ageu":"YEARS","race":"WHITE","racen":1,"sex":"F","ethnic":"NOT HISPANIC OR LATINO","saffl":"Y","ittfl":"Y","efffl":"Y","comp8fl":"Y","comp16fl":"Y","comp24fl":"Y","disconfl":"","dsraefl":"","dthfl":"","bmibl":18,"bmiblgr1":"<25","heightbl":152.4,"weightbl":41.7,"educlvl":12,"disonsdt":"2011-08-25","durdis":24.4,"durdsgr1":">=12","visit1dt":"2013-09-06","rfstdtc":"2013-09-17","rfendtc":"2014-03-23","visnumen":12,"rfendt":"2014-03-23","dcdecod":"COMPLETED","dcreascd":"Completed","mmsetot":21},{"studyid":"CDISCPILOT01","usubjid":"01-710-1083","subjid":"1083","siteid":"710","sitegr1":"710","arm":"Placebo","trt01p":"Placebo","trt01pn":0,"trt01a":"Placebo","trt01an":0,"trtsdt":"2013-07-22","trtedt":"2013-08-01","trtdur":11,"avgdd":0,"cumdose":0,"age":89,"agegr1":">80","agegr1n":3,"ageu":"YEARS","race":"WHITE","racen":1,"sex":"F","ethnic":"NOT HISPANIC OR LATINO","saffl":"Y","ittfl":"Y","efffl":"N","comp8fl":"N","comp16fl":"N","comp24fl":"N","disconfl":"Y","dsraefl":"","dthfl":"Y","bmibl":19,"bmiblgr1":"<25","heightbl":157.5,"weightbl":47.2,"educlvl":14,"disonsdt":"2011-07-19","durdis":23.7,"durdsgr1":">=12","visit1dt":"2013-07-09","rfstdtc":"2013-07-22","rfendtc":"2013-08-03","visnumen":4,"rfendt":"2013-08-03","dcdecod":"DEATH","dcreascd":"Death","mmsetot":14},{"studyid":"CDISCPILOT01","usubjid":"01-710-1137","subjid":"1137","siteid":"710","sitegr1":"710","arm":"Xanomeline High Dose","trt01p":"Xanomeline High Dose","trt01pn":81,"trt01a":"Xanomeline High Dose","trt01an":81,"trtsdt":"2013-10-11","trtedt":"2013-11-13","trtdur":34,"avgdd":69.1,"cumdose":2349,"age":79,"agegr1":"65-80","agegr1n":2,"ageu":"YEARS","race":"BLACK OR AFRICAN AMERICAN","racen":2,"sex":"F","ethnic":"NOT HISPANIC OR LATINO","saffl":"Y","ittfl":"Y","efffl":"N","comp8fl":"N","comp16fl":"N","comp24fl":"N","disconfl":"Y","dsraefl":"Y","dthfl":"","bmibl":24,"bmiblgr1":"<25","heightbl":165.1,"weightbl":65.3,"educlvl":16,"disonsdt":"2009-10-12","durdis":47.7,"durdsgr1":">=12","visit1dt":"2013-10-03","rfstdtc":"2013-10-11","rfendtc":"2013-11-13","visnumen":7,"rfendt":"2013-11-13","dcdecod":"ADVERSE EVENT","dcreascd":"Adverse Event","mmsetot":18},{"studyid":"CDISCPILOT01","usubjid":"01-710-1142","subjid":"1142","siteid":"710","sitegr1":"710","arm":"Xanomeline High Dose","trt01p":"Xanomeline High Dose","trt01pn":81,"trt01a":"Xanomeline High Dose","trt01an":81,"trtsdt":"2012-10-02","trtedt":"2012-10-20","trtdur":19,"avgdd":59.7,"cumdose":1134,"age":76,"agegr1":"65-80","agegr1n":2,"ageu":"YEARS","race":"WHITE","racen":1,"sex":"F","ethnic":"NOT HISPANIC OR LATINO","saffl":"Y","ittfl":"Y","efffl":"Y","comp8fl":"N","comp16fl":"N","comp24fl":"N","disconfl":"Y","dsraefl":"Y","dthfl":"","bmibl":24.8,"bmiblgr1":"<25","heightbl":152.4,"weightbl":57.6,"educlvl":12,"disonsdt":"2010-09-26","durdis":23.6,"durdsgr1":">=12","visit1dt":"2012-09-12","rfstdtc":"2012-10-02","rfendtc":"2012-10-23","visnumen":5,"rfendt":"2012-10-23","dcdecod":"ADVERSE EVENT","dcreascd":"Adverse Event","mmsetot":23},{"studyid":"CDISCPILOT01","usubjid":"01-710-1154","subjid":"1154","siteid":"710","sitegr1":"710","arm":"Xanomeline Low Dose","trt01p":"Xanomeline Low Dose","trt01pn":54,"trt01a":"Xanomeline Low Dose","trt01an":54,"trtsdt":"2014-03-29","trtedt":"2014-04-27","trtdur":30,"avgdd":54,"cumdose":1620,"age":84,"agegr1":">80","agegr1n":3,"ageu":"YEARS","race":"WHITE","racen":1,"sex":"M","ethnic":"HISPANIC OR LATINO","saffl":"Y","ittfl":"Y","efffl":"Y","comp8fl":"N","comp16fl":"N","comp24fl":"N","disconfl":"Y","dsraefl":"Y","dthfl":"","bmibl":32.3,"bmiblgr1":">=30","heightbl":160,"weightbl":82.6,"educlvl":3,"disonsdt":"2008-02-25","durdis":72.4,"durdsgr1":">=12","visit1dt":"2014-03-08","rfstdtc":"2014-03-29","rfendtc":"2014-05-09","visnumen":7,"rfendt":"2014-05-09","dcdecod":"ADVERSE EVENT","dcreascd":"Adverse Event","mmsetot":13},{"studyid":"CDISCPILOT01","usubjid":"01-710-1166","subjid":"1166","siteid":"710","sitegr1":"710","arm":"Xanomeline Low Dose","trt01p":"Xanomeline Low Dose","trt01pn":54,"trt01a":"Xanomeline Low Dose","trt01an":54,"trtsdt":"2012-11-30","trtedt":"2013-03-19","trtdur":110,"avgdd":54,"cumdose":5940,"age":81,"agegr1":">80","agegr1n":3,"ageu":"YEARS","race":"WHITE","racen":1,"sex":"F","ethnic":"NOT HISPANIC OR LATINO","saffl":"Y","ittfl":"Y","efffl":"Y","comp8fl":"Y","comp16fl":"Y","comp24fl":"N","disconfl":"Y","dsraefl":"Y","dthfl":"","bmibl":22.1,"bmiblgr1":"<25","heightbl":157.5,"weightbl":54.9,"educlvl":12,"disonsdt":"2007-11-10","durdis":60.1,"durdsgr1":">=12","visit1dt":"2012-11-10","rfstdtc":"2012-11-30","rfendtc":"2013-03-30","visnumen":10,"rfendt":"2013-03-30","dcdecod":"ADVERSE EVENT","dcreascd":"Adverse Event","mmsetot":18},{"studyid":"CDISCPILOT01","usubjid":"01-710-1183","subjid":"1183","siteid":"710","sitegr1":"710","arm":"Placebo","trt01p":"Placebo","trt01pn":0,"trt01a":"Placebo","trt01an":0,"trtsdt":"2013-11-16","trtedt":"2014-05-17","trtdur":183,"avgdd":0,"cumdose":0,"age":80,"agegr1":"65-80","agegr1n":2,"ageu":"YEARS","race":"WHITE","racen":1,"sex":"F","ethnic":"NOT HISPANIC OR LATINO","saffl":"Y","ittfl":"Y","efffl":"Y","comp8fl":"Y","comp16fl":"Y","comp24fl":"Y","disconfl":"","dsraefl":"","dthfl":"","bmibl":21.2,"bmiblgr1":"<25","heightbl":149.9,"weightbl":47.6,"educlvl":8,"disonsdt":"2012-10-25","durdis":12,"durdsgr1":">=12","visit1dt":"2013-10-24","rfstdtc":"2013-11-16","rfendtc":"2014-05-17","visnumen":12,"rfendt":"2014-05-17","dcdecod":"COMPLETED","dcreascd":"Completed","mmsetot":16},{"studyid":"CDISCPILOT01","usubjid":"01-710-1187","subjid":"1187","siteid":"710","sitegr1":"710","arm":"Xanomeline High Dose","trt01p":"Xanomeline High Dose","trt01pn":81,"trt01a":"Xanomeline High Dose","trt01an":81,"trtsdt":"2012-11-10","trtedt":"2013-05-12","trtdur":184,"avgdd":76.7,"cumdose":14121,"age":78,"agegr1":"65-80","agegr1n":2,"ageu":"YEARS","race":"WHITE","racen":1,"sex":"F","ethnic":"NOT HISPANIC OR LATINO","saffl":"Y","ittfl":"Y","efffl":"Y","comp8fl":"Y","comp16fl":"Y","comp24fl":"Y","disconfl":"","dsraefl":"","dthfl":"","bmibl":20.8,"bmiblgr1":"<25","heightbl":154.9,"weightbl":49.9,"educlvl":8,"disonsdt":"2010-10-22","durdis":24.2,"durdsgr1":">=12","visit1dt":"2012-10-26","rfstdtc":"2012-11-10","rfendtc":"2013-05-12","visnumen":12,"rfendt":"2013-05-12","dcdecod":"COMPLETED","dcreascd":"Completed","mmsetot":11},{"studyid":"CDISCPILOT01","usubjid":"01-710-1235","subjid":"1235","siteid":"710","sitegr1":"710","arm":"Xanomeline Low Dose","trt01p":"Xanomeline Low Dose","trt01pn":54,"trt01a":"Xanomeline Low Dose","trt01an":54,"trtsdt":"2012-09-26","trtedt":"2013-03-27","trtdur":183,"avgdd":54,"cumdose":9882,"age":56,"agegr1":"<65","agegr1n":1,"ageu":"YEARS","race":"WHITE","racen":1,"sex":"F","ethnic":"HISPANIC OR LATINO","saffl":"Y","ittfl":"Y","efffl":"Y","comp8fl":"Y","comp16fl":"Y","comp24fl":"Y","disconfl":"","dsraefl":"","dthfl":"","bmibl":33,"bmiblgr1":">=30","heightbl":170.2,"weightbl":95.7,"educlvl":16,"disonsdt":"2009-12-03","durdis":33.4,"durdsgr1":">=12","visit1dt":"2012-09-13","rfstdtc":"2012-09-26","rfendtc":"2013-03-27","visnumen":12,"rfendt":"2013-03-27","dcdecod":"COMPLETED","dcreascd":"Completed","mmsetot":20},{"studyid":"CDISCPILOT01","usubjid":"01-710-1249","subjid":"1249","siteid":"710","sitegr1":"710","arm":"Xanomeline High Dose","trt01p":"Xanomeline High Dose","trt01pn":81,"trt01a":"Xanomeline High Dose","trt01an":81,"trtsdt":"2013-12-28","trtedt":"2014-06-28","trtdur":183,"avgdd":76.7,"cumdose":14040,"age":79,"agegr1":"65-80","agegr1n":2,"ageu":"YEARS","race":"WHITE","racen":1,"sex":"M","ethnic":"NOT HISPANIC OR LATINO","saffl":"Y","ittfl":"Y","efffl":"Y","comp8fl":"Y","comp16fl":"Y","comp24fl":"Y","disconfl":"","dsraefl":"","dthfl":"","bmibl":25.4,"bmiblgr1":"25-<30","heightbl":177.8,"weightbl":80.3,"educlvl":12,"disonsdt":"2008-12-27","durdis":59.8,"durdsgr1":">=12","visit1dt":"2013-12-19","rfstdtc":"2013-12-28","rfendtc":"2014-06-28","visnumen":12,"rfendt":"2014-06-28","dcdecod":"COMPLETED","dcreascd":"Completed","mmsetot":20},{"studyid":"CDISCPILOT01","usubjid":"01-710-1264","subjid":"1264","siteid":"710","sitegr1":"710","arm":"Placebo","trt01p":"Placebo","trt01pn":0,"trt01a":"Placebo","trt01an":0,"trtsdt":"2013-06-13","trtedt":"2013-10-11","trtdur":121,"avgdd":0,"cumdose":0,"age":78,"agegr1":"65-80","agegr1n":2,"ageu":"YEARS","race":"WHITE","racen":1,"sex":"M","ethnic":"NOT HISPANIC OR LATINO","saffl":"Y","ittfl":"Y","efffl":"Y","comp8fl":"Y","comp16fl":"Y","comp24fl":"N","disconfl":"Y","dsraefl":"Y","dthfl":"","bmibl":29.1,"bmiblgr1":"25-<30","heightbl":167.6,"weightbl":81.7,"educlvl":12,"disonsdt":"2010-06-06","durdis":35.9,"durdsgr1":">=12","visit1dt":"2013-06-02","rfstdtc":"2013-06-13","rfendtc":"2013-10-12","visnumen":11,"rfendt":"2013-10-12","dcdecod":"ADVERSE EVENT","dcreascd":"Adverse Event","mmsetot":14},{"studyid":"CDISCPILOT01","usubjid":"01-710-1270","subjid":"1270","siteid":"710","sitegr1":"710","arm":"Xanomeline Low Dose","trt01p":"Xanomeline Low Dose","trt01pn":54,"trt01a":"Xanomeline Low Dose","trt01an":54,"trtsdt":"2014-02-12","trtedt":"2014-03-01","trtdur":18,"avgdd":54,"cumdose":972,"age":83,"agegr1":">80","agegr1n":3,"ageu":"YEARS","race":"WHITE","racen":1,"sex":"F","ethnic":"NOT HISPANIC OR LATINO","saffl":"Y","ittfl":"Y","efffl":"Y","comp8fl":"N","comp16fl":"N","comp24fl":"N","disconfl":"Y","dsraefl":"Y","dthfl":"","bmibl":25.6,"bmiblgr1":"25-<30","heightbl":149.9,"weightbl":57.6,"educlvl":12,"disonsdt":"2012-06-19","durdis":19.5,"durdsgr1":">=12","visit1dt":"2014-02-01","rfstdtc":"2014-02-12","rfendtc":"2014-03-01","visnumen":4,"rfendt":"2014-03-01","dcdecod":"ADVERSE EVENT","dcreascd":"Adverse Event","mmsetot":11},{"studyid":"CDISCPILOT01","usubjid":"01-710-1271","subjid":"1271","siteid":"710","sitegr1":"710","arm":"Placebo","trt01p":"Placebo","trt01pn":0,"trt01a":"Placebo","trt01an":0,"trtsdt":"2012-09-27","trtedt":"2012-11-21","trtdur":56,"avgdd":0,"cumdose":0,"age":86,"agegr1":">80","agegr1n":3,"ageu":"YEARS","race":"WHITE","racen":1,"sex":"F","ethnic":"NOT HISPANIC OR LATINO","saffl":"Y","ittfl":"Y","efffl":"N","comp8fl":"Y","comp16fl":"N","comp24fl":"N","disconfl":"Y","dsraefl":"Y","dthfl":"","bmibl":21.2,"bmiblgr1":"<25","heightbl":149.9,"weightbl":47.6,"educlvl":16,"disonsdt":"2011-09-05","durdis":12,"durdsgr1":">=12","visit1dt":"2012-09-04","rfstdtc":"2012-09-27","rfendtc":"2012-12-02","visnumen":8,"rfendt":"2012-12-02","dcdecod":"ADVERSE EVENT","dcreascd":"Adverse Event","mmsetot":18},{"studyid":"CDISCPILOT01","usubjid":"01-710-1278","subjid":"1278","siteid":"710","sitegr1":"710","arm":"Xanomeline High Dose","trt01p":"Xanomeline High Dose","trt01pn":81,"trt01a":"Xanomeline High Dose","trt01an":81,"trtsdt":"2012-12-24","trtedt":"2013-02-26","trtdur":65,"avgdd":74.8,"cumdose":4860,"age":81,"agegr1":">80","agegr1n":3,"ageu":"YEARS","race":"WHITE","racen":1,"sex":"M","ethnic":"NOT HISPANIC OR LATINO","saffl":"Y","ittfl":"Y","efffl":"Y","comp8fl":"Y","comp16fl":"N","comp24fl":"N","disconfl":"Y","dsraefl":"Y","dthfl":"","bmibl":22.7,"bmiblgr1":"<25","heightbl":177.8,"weightbl":71.7,"educlvl":20,"disonsdt":"2011-12-08","durdis":12.2,"durdsgr1":">=12","visit1dt":"2012-12-13","rfstdtc":"2012-12-24","rfendtc":"2013-03-03","visnumen":9,"rfendt":"2013-03-03","dcdecod":"ADVERSE EVENT","dcreascd":"Adverse Event","mmsetot":14},{"studyid":"CDISCPILOT01","usubjid":"01-710-1300","subjid":"1300","siteid":"710","sitegr1":"710","arm":"Xanomeline Low Dose","trt01p":"Xanomeline Low Dose","trt01pn":54,"trt01a":"Xanomeline Low Dose","trt01an":54,"trtsdt":"2012-12-15","trtedt":"2013-02-15","trtdur":63,"avgdd":54,"cumdose":3402,"age":78,"agegr1":"65-80","agegr1n":2,"ageu":"YEARS","race":"WHITE","racen":1,"sex":"F","ethnic":"NOT HISPANIC OR LATINO","saffl":"Y","ittfl":"Y","efffl":"Y","comp8fl":"Y","comp16fl":"N","comp24fl":"N","disconfl":"Y","dsraefl":"Y","dthfl":"","bmibl":20.1,"bmiblgr1":"<25","heightbl":152.4,"weightbl":46.7,"educlvl":12,"disonsdt":"2011-11-16","durdis":12.6,"durdsgr1":">=12","visit1dt":"2012-12-04","rfstdtc":"2012-12-15","rfendtc":"2013-02-19","visnumen":9,"rfendt":"2013-02-19","dcdecod":"ADVERSE EVENT","dcreascd":"Adverse Event","mmsetot":13},{"studyid":"CDISCPILOT01","usubjid":"01-710-1314","subjid":"1314","siteid":"710","sitegr1":"710","arm":"Placebo","trt01p":"Placebo","trt01pn":0,"trt01a":"Placebo","trt01an":0,"trtsdt":"2013-04-24","trtedt":"2013-05-23","trtdur":30,"avgdd":0,"cumdose":0,"age":78,"agegr1":"65-80","agegr1n":2,"ageu":"YEARS","race":"WHITE","racen":1,"sex":"F","ethnic":"NOT HISPANIC OR LATINO","saffl":"Y","ittfl":"Y","efffl":"N","comp8fl":"N","comp16fl":"N","comp24fl":"N","disconfl":"Y","dsraefl":"","dthfl":"","bmibl":22.6,"bmiblgr1":"<25","heightbl":137.2,"weightbl":42.6,"educlvl":12,"disonsdt":"2011-04-14","durdis":24.3,"durdsgr1":">=12","visit1dt":"2013-04-21","rfstdtc":"2013-04-24","rfendtc":"2013-05-25","visnumen":6,"rfendt":"2013-05-25","dcdecod":"WITHDRAWAL BY SUBJECT","dcreascd":"Withdrew Consent","mmsetot":12},{"studyid":"CDISCPILOT01","usubjid":"01-710-1315","subjid":"1315","siteid":"710","sitegr1":"710","arm":"Placebo","trt01p":"Placebo","trt01pn":0,"trt01a":"Placebo","trt01an":0,"trtsdt":"2013-02-27","trtedt":"2013-07-06","trtdur":130,"avgdd":0,"cumdose":0,"age":83,"agegr1":">80","agegr1n":3,"ageu":"YEARS","race":"WHITE","racen":1,"sex":"F","ethnic":"NOT HISPANIC OR LATINO","saffl":"Y","ittfl":"Y","efffl":"Y","comp8fl":"Y","comp16fl":"Y","comp24fl":"N","disconfl":"Y","dsraefl":"Y","dthfl":"","bmibl":24.2,"bmiblgr1":"<25","heightbl":152.4,"weightbl":56.3,"educlvl":12,"disonsdt":"2011-08-20","durdis":17.8,"durdsgr1":">=12","visit1dt":"2013-02-12","rfstdtc":"2013-02-27","rfendtc":"2013-07-16","visnumen":11,"rfendt":"2013-07-16","dcdecod":"ADVERSE EVENT","dcreascd":"Adverse Event","mmsetot":12},{"studyid":"CDISCPILOT01","usubjid":"01-710-1354","subjid":"1354","siteid":"710","sitegr1":"710","arm":"Xanomeline High Dose","trt01p":"Xanomeline High Dose","trt01pn":81,"trt01a":"Xanomeline High Dose","trt01an":81,"trtsdt":"2012-11-11","trtedt":"2013-05-01","trtdur":172,"avgdd":77.1,"cumdose":13257,"age":73,"agegr1":"65-80","agegr1n":2,"ageu":"YEARS","race":"WHITE","racen":1,"sex":"M","ethnic":"NOT HISPANIC OR LATINO","saffl":"Y","ittfl":"Y","efffl":"Y","comp8fl":"Y","comp16fl":"Y","comp24fl":"Y","disconfl":"","dsraefl":"","dthfl":"","bmibl":26.7,"bmiblgr1":"25-<30","heightbl":182.9,"weightbl":89.4,"educlvl":16,"disonsdt":"2011-11-06","durdis":11.8,"durdsgr1":"<12","visit1dt":"2012-10-29","rfstdtc":"2012-11-11","rfendtc":"2013-05-01","visnumen":12,"rfendt":"2013-05-01","dcdecod":"COMPLETED","dcreascd":"Completed","mmsetot":23},{"studyid":"CDISCPILOT01","usubjid":"01-710-1358","subjid":"1358","siteid":"710","sitegr1":"710","arm":"Xanomeline Low Dose","trt01p":"Xanomeline Low Dose","trt01pn":54,"trt01a":"Xanomeline Low Dose","trt01an":54,"trtsdt":"2012-09-17","trtedt":"2013-02-09","trtdur":146,"avgdd":54,"cumdose":7884,"age":82,"agegr1":">80","agegr1n":3,"ageu":"YEARS","race":"WHITE","racen":1,"sex":"M","ethnic":"NOT HISPANIC OR LATINO","saffl":"Y","ittfl":"Y","efffl":"Y","comp8fl":"Y","comp16fl":"Y","comp24fl":"Y","disconfl":"Y","dsraefl":"","dthfl":"","bmibl":31.1,"bmiblgr1":">=30","heightbl":162.6,"weightbl":82.1,"educlvl":6,"disonsdt":"2009-08-29","durdis":36.2,"durdsgr1":">=12","visit1dt":"2012-09-02","rfstdtc":"2012-09-17","rfendtc":"2013-03-12","visnumen":12,"rfendt":"2013-03-12","dcdecod":"WITHDRAWAL BY SUBJECT","dcreascd":"Withdrew Consent","mmsetot":13},{"studyid":"CDISCPILOT01","usubjid":"01-710-1368","subjid":"1368","siteid":"710","sitegr1":"710","arm":"Placebo","trt01p":"Placebo","trt01pn":0,"trt01a":"Placebo","trt01an":0,"trtsdt":"2013-10-23","trtedt":"2014-04-24","trtdur":184,"avgdd":0,"cumdose":0,"age":88,"agegr1":">80","agegr1n":3,"ageu":"YEARS","race":"WHITE","racen":1,"sex":"F","ethnic":"NOT HISPANIC OR LATINO","saffl":"Y","ittfl":"Y","efffl":"Y","comp8fl":"Y","comp16fl":"Y","comp24fl":"Y","disconfl":"","dsraefl":"","dthfl":"","bmibl":15.7,"bmiblgr1":"<25","heightbl":147.3,"weightbl":34,"educlvl":12,"disonsdt":"2011-10-12","durdis":24.3,"durdsgr1":">=12","visit1dt":"2013-10-21","rfstdtc":"2013-10-23","rfendtc":"2014-04-24","visnumen":12,"rfendt":"2014-04-24","dcdecod":"COMPLETED","dcreascd":"Completed","mmsetot":13},{"studyid":"CDISCPILOT01","usubjid":"01-710-1385","subjid":"1385","siteid":"710","sitegr1":"710","arm":"Xanomeline Low Dose","trt01p":"Xanomeline Low Dose","trt01pn":54,"trt01a":"Xanomeline Low Dose","trt01an":54,"trtsdt":"2012-10-29","trtedt":"2013-02-18","trtdur":113,"avgdd":54,"cumdose":6102,"age":77,"agegr1":"65-80","agegr1n":2,"ageu":"YEARS","race":"WHITE","racen":1,"sex":"M","ethnic":"NOT HISPANIC OR LATINO","saffl":"Y","ittfl":"Y","efffl":"Y","comp8fl":"Y","comp16fl":"Y","comp24fl":"N","disconfl":"Y","dsraefl":"Y","dthfl":"","bmibl":25.2,"bmiblgr1":"25-<30","heightbl":182.9,"weightbl":84.4,"educlvl":18,"disonsdt":"2011-10-28","durdis":11.8,"durdsgr1":"<12","visit1dt":"2012-10-21","rfstdtc":"2012-10-29","rfendtc":"2013-02-18","visnumen":10,"rfendt":"2013-02-18","dcdecod":"ADVERSE EVENT","dcreascd":"Adverse Event","mmsetot":14},{"studyid":"CDISCPILOT01","usubjid":"01-710-1408","subjid":"1408","siteid":"710","sitegr1":"710","arm":"Xanomeline High Dose","trt01p":"Xanomeline High Dose","trt01pn":81,"trt01a":"Xanomeline High Dose","trt01an":81,"trtsdt":"2013-01-05","trtedt":"2013-07-12","trtdur":189,"avgdd":76.1,"cumdose":14391,"age":80,"agegr1":"65-80","agegr1n":2,"ageu":"YEARS","race":"WHITE","racen":1,"sex":"M","ethnic":"NOT HISPANIC OR LATINO","saffl":"Y","ittfl":"Y","efffl":"Y","comp8fl":"Y","comp16fl":"Y","comp24fl":"Y","disconfl":"","dsraefl":"","dthfl":"","bmibl":34.2,"bmiblgr1":">=30","heightbl":177.8,"weightbl":108,"educlvl":12,"disonsdt":"2007-12-14","durdis":60.5,"durdsgr1":">=12","visit1dt":"2012-12-26","rfstdtc":"2013-01-05","rfendtc":"2013-07-12","visnumen":12,"rfendt":"2013-07-12","dcdecod":"COMPLETED","dcreascd":"Completed","mmsetot":23},{"studyid":"CDISCPILOT01","usubjid":"01-711-1012","subjid":"1012","siteid":"711","sitegr1":"900","arm":"Xanomeline High Dose","trt01p":"Xanomeline High Dose","trt01pn":81,"trt01a":"Xanomeline High Dose","trt01an":81,"trtsdt":"2013-04-03","trtedt":"2013-04-29","trtdur":27,"avgdd":66,"cumdose":1782,"age":67,"agegr1":"65-80","agegr1n":2,"ageu":"YEARS","race":"WHITE","racen":1,"sex":"F","ethnic":"NOT HISPANIC OR LATINO","saffl":"Y","ittfl":"Y","efffl":"Y","comp8fl":"N","comp16fl":"N","comp24fl":"N","disconfl":"Y","dsraefl":"Y","dthfl":"","bmibl":28,"bmiblgr1":"25-<30","heightbl":170.2,"weightbl":81,"educlvl":12,"disonsdt":"2011-07-25","durdis":19.9,"durdsgr1":">=12","visit1dt":"2013-03-20","rfstdtc":"2013-04-03","rfendtc":"2013-05-02","visnumen":5,"rfendt":"2013-05-02","dcdecod":"ADVERSE EVENT","dcreascd":"Adverse Event","mmsetot":18},{"studyid":"CDISCPILOT01","usubjid":"01-711-1036","subjid":"1036","siteid":"711","sitegr1":"900","arm":"Placebo","trt01p":"Placebo","trt01pn":0,"trt01a":"Placebo","trt01an":0,"trtsdt":"2012-07-29","trtedt":"2013-02-10","trtdur":197,"avgdd":0,"cumdose":0,"age":70,"agegr1":"65-80","agegr1n":2,"ageu":"YEARS","race":"BLACK OR AFRICAN AMERICAN","racen":2,"sex":"M","ethnic":"NOT HISPANIC OR LATINO","saffl":"Y","ittfl":"Y","efffl":"Y","comp8fl":"Y","comp16fl":"Y","comp24fl":"Y","disconfl":"","dsraefl":"","dthfl":"","bmibl":23.4,"bmiblgr1":"<25","heightbl":172,"weightbl":69.2,"educlvl":9,"disonsdt":"2009-03-05","durdis":40.5,"durdsgr1":">=12","visit1dt":"2012-07-20","rfstdtc":"2012-07-29","rfendtc":"2013-02-10","visnumen":12,"rfendt":"2013-02-10","dcdecod":"COMPLETED","dcreascd":"Completed","mmsetot":23},{"studyid":"CDISCPILOT01","usubjid":"01-711-1143","subjid":"1143","siteid":"711","sitegr1":"900","arm":"Xanomeline Low Dose","trt01p":"Xanomeline Low Dose","trt01pn":54,"trt01a":"Xanomeline Low Dose","trt01an":54,"trtsdt":"2013-04-03","trtedt":"2013-05-30","trtdur":58,"avgdd":54,"cumdose":3132,"age":76,"agegr1":"65-80","agegr1n":2,"ageu":"YEARS","race":"WHITE","racen":1,"sex":"F","ethnic":"NOT HISPANIC OR LATINO","saffl":"Y","ittfl":"Y","efffl":"Y","comp8fl":"Y","comp16fl":"N","comp24fl":"N","disconfl":"Y","dsraefl":"Y","dthfl":"","bmibl":24.3,"bmiblgr1":"<25","heightbl":163.1,"weightbl":64.6,"educlvl":12,"disonsdt":"2011-04-29","durdis":23.1,"durdsgr1":">=12","visit1dt":"2013-03-30","rfstdtc":"2013-04-03","rfendtc":"2013-06-01","visnumen":9,"rfendt":"2013-06-01","dcdecod":"ADVERSE EVENT","dcreascd":"Adverse Event","mmsetot":23},{"studyid":"CDISCPILOT01","usubjid":"01-711-1433","subjid":"1433","siteid":"711","sitegr1":"900","arm":"Xanomeline High Dose","trt01p":"Xanomeline High Dose","trt01pn":81,"trt01a":"Xanomeline High Dose","trt01an":81,"trtsdt":"2013-01-27","trtedt":"2013-02-05","trtdur":10,"avgdd":54,"cumdose":540,"age":84,"agegr1":">80","agegr1n":3,"ageu":"YEARS","race":"WHITE","racen":1,"sex":"F","ethnic":"NOT HISPANIC OR LATINO","saffl":"Y","ittfl":"Y","efffl":"N","comp8fl":"N","comp16fl":"N","comp24fl":"N","disconfl":"Y","dsraefl":"Y","dthfl":"","bmibl":20.9,"bmiblgr1":"<25","heightbl":157.5,"weightbl":51.9,"educlvl":12,"disonsdt":"2012-02-02","durdis":11.7,"durdsgr1":"<12","visit1dt":"2013-01-23","rfstdtc":"2013-01-27","rfendtc":"2013-02-06","visnumen":4,"rfendt":"2013-02-06","dcdecod":"ADVERSE EVENT","dcreascd":"Adverse Event","mmsetot":18},{"studyid":"CDISCPILOT01","usubjid":"01-713-1043","subjid":"1043","siteid":"713","sitegr1":"713","arm":"Xanomeline Low Dose","trt01p":"Xanomeline Low Dose","trt01pn":54,"trt01a":"Xanomeline Low Dose","trt01an":54,"trtsdt":"2013-09-15","trtedt":"2014-03-24","trtdur":191,"avgdd":54,"cumdose":10314,"age":78,"agegr1":"65-80","agegr1n":2,"ageu":"YEARS","race":"WHITE","racen":1,"sex":"F","ethnic":"NOT HISPANIC OR LATINO","saffl":"Y","ittfl":"Y","efffl":"Y","comp8fl":"Y","comp16fl":"Y","comp24fl":"Y","disconfl":"","dsraefl":"","dthfl":"","bmibl":18.8,"bmiblgr1":"<25","heightbl":165.1,"weightbl":51.3,"educlvl":8,"disonsdt":"2011-12-09","durdis":20.3,"durdsgr1":">=12","visit1dt":"2013-08-17","rfstdtc":"2013-09-15","rfendtc":"2014-03-24","visnumen":12,"rfendt":"2014-03-24","dcdecod":"COMPLETED","dcreascd":"Completed","mmsetot":16},{"studyid":"CDISCPILOT01","usubjid":"01-713-1073","subjid":"1073","siteid":"713","sitegr1":"713","arm":"Xanomeline Low Dose","trt01p":"Xanomeline Low Dose","trt01pn":54,"trt01a":"Xanomeline Low Dose","trt01an":54,"trtsdt":"2014-03-30","trtedt":"2014-10-05","trtdur":190,"avgdd":54,"cumdose":10260,"age":74,"agegr1":"65-80","agegr1n":2,"ageu":"YEARS","race":"BLACK OR AFRICAN AMERICAN","racen":2,"sex":"F","ethnic":"NOT HISPANIC OR LATINO","saffl":"Y","ittfl":"Y","efffl":"Y","comp8fl":"Y","comp16fl":"Y","comp24fl":"Y","disconfl":"","dsraefl":"","dthfl":"","bmibl":20.3,"bmiblgr1":"<25","heightbl":167.6,"weightbl":56.9,"educlvl":6,"disonsdt":"2013-02-19","durdis":12.8,"durdsgr1":">=12","visit1dt":"2014-03-15","rfstdtc":"2014-03-30","rfendtc":"2014-10-05","visnumen":12,"rfendt":"2014-10-05","dcdecod":"COMPLETED","dcreascd":"Completed","mmsetot":11},{"studyid":"CDISCPILOT01","usubjid":"01-713-1106","subjid":"1106","siteid":"713","sitegr1":"713","arm":"Xanomeline High Dose","trt01p":"Xanomeline High Dose","trt01pn":81,"trt01a":"Xanomeline High Dose","trt01an":81,"trtsdt":"2012-10-31","trtedt":"2013-05-06","trtdur":188,"avgdd":76.7,"cumdose":14418,"age":74,"agegr1":"65-80","agegr1n":2,"ageu":"YEARS","race":"WHITE","racen":1,"sex":"M","ethnic":"NOT HISPANIC OR LATINO","saffl":"Y","ittfl":"Y","efffl":"Y","comp8fl":"Y","comp16fl":"Y","comp24fl":"Y","disconfl":"","dsraefl":"","dthfl":"","bmibl":19.6,"bmiblgr1":"<25","heightbl":164.8,"weightbl":53.1,"educlvl":16,"disonsdt":"2010-01-16","durdis":32.6,"durdsgr1":">=12","visit1dt":"2012-10-03","rfstdtc":"2012-10-31","rfendtc":"2013-05-06","visnumen":12,"rfendt":"2013-05-06","dcdecod":"COMPLETED","dcreascd":"Completed","mmsetot":23},{"studyid":"CDISCPILOT01","usubjid":"01-713-1141","subjid":"1141","siteid":"713","sitegr1":"713","arm":"Xanomeline High Dose","trt01p":"Xanomeline High Dose","trt01pn":81,"trt01a":"Xanomeline High Dose","trt01an":81,"trtsdt":"2013-05-31","trtedt":"2013-07-01","trtdur":32,"avgdd":68.3,"cumdose":2187,"age":79,"agegr1":"65-80","agegr1n":2,"ageu":"YEARS","race":"WHITE","racen":1,"sex":"M","ethnic":"NOT HISPANIC OR LATINO","saffl":"Y","ittfl":"Y","efffl":"N","comp8fl":"N","comp16fl":"N","comp24fl":"N","disconfl":"Y","dsraefl":"Y","dthfl":"","bmibl":23.5,"bmiblgr1":"<25","heightbl":170,"weightbl":68,"educlvl":13,"disonsdt":"2006-11-24","durdis":78,"durdsgr1":">=12","visit1dt":"2013-05-23","rfstdtc":"2013-05-31","rfendtc":"2013-08-06","visnumen":7,"rfendt":"2013-08-06","dcdecod":"ADVERSE EVENT","dcreascd":"Adverse Event","mmsetot":18},{"studyid":"CDISCPILOT01","usubjid":"01-713-1179","subjid":"1179","siteid":"713","sitegr1":"713","arm":"Placebo","trt01p":"Placebo","trt01pn":0,"trt01a":"Placebo","trt01an":0,"trtsdt":"2013-08-09","trtedt":"2014-02-05","trtdur":181,"avgdd":0,"cumdose":0,"age":64,"agegr1":"<65","agegr1n":1,"ageu":"YEARS","race":"WHITE","racen":1,"sex":"F","ethnic":"NOT HISPANIC OR LATINO","saffl":"Y","ittfl":"Y","efffl":"Y","comp8fl":"Y","comp16fl":"Y","comp24fl":"Y","disconfl":"","dsraefl":"","dthfl":"","bmibl":20.3,"bmiblgr1":"<25","heightbl":165.1,"weightbl":55.3,"educlvl":12,"disonsdt":"2011-05-04","durdis":26.3,"durdsgr1":">=12","visit1dt":"2013-07-11","rfstdtc":"2013-08-09","rfendtc":"2014-02-05","visnumen":12,"rfendt":"2014-02-05","dcdecod":"COMPLETED","dcreascd":"Completed","mmsetot":21},{"studyid":"CDISCPILOT01","usubjid":"01-713-1209","subjid":"1209","siteid":"713","sitegr1":"713","arm":"Xanomeline High Dose","trt01p":"Xanomeline High Dose","trt01pn":81,"trt01a":"Xanomeline High Dose","trt01an":81,"trtsdt":"2013-05-27","trtedt":"2013-11-22","trtdur":180,"avgdd":77,"cumdose":13851,"age":77,"agegr1":"65-80","agegr1n":2,"ageu":"YEARS","race":"WHITE","racen":1,"sex":"F","ethnic":"NOT HISPANIC OR LATINO","saffl":"Y","ittfl":"Y","efffl":"Y","comp8fl":"Y","comp16fl":"Y","comp24fl":"Y","disconfl":"","dsraefl":"","dthfl":"","bmibl":19.2,"bmiblgr1":"<25","heightbl":165.1,"weightbl":52.2,"educlvl":12,"disonsdt":"2010-07-14","durdis":34.1,"durdsgr1":">=12","visit1dt":"2013-05-16","rfstdtc":"2013-05-27","rfendtc":"2013-11-22","visnumen":12,"rfendt":"2013-11-22","dcdecod":"COMPLETED","dcreascd":"Completed","mmsetot":23},{"studyid":"CDISCPILOT01","usubjid":"01-713-1256","subjid":"1256","siteid":"713","sitegr1":"713","arm":"Placebo","trt01p":"Placebo","trt01pn":0,"trt01a":"Placebo","trt01an":0,"trtsdt":"2012-09-19","trtedt":"2013-03-25","trtdur":188,"avgdd":0,"cumdose":0,"age":71,"agegr1":"65-80","agegr1n":2,"ageu":"YEARS","race":"WHITE","racen":1,"sex":"M","ethnic":"NOT HISPANIC OR LATINO","saffl":"Y","ittfl":"Y","efffl":"Y","comp8fl":"Y","comp16fl":"Y","comp24fl":"Y","disconfl":"","dsraefl":"","dthfl":"","bmibl":23.7,"bmiblgr1":"<25","heightbl":180.3,"weightbl":77.1,"educlvl":16,"disonsdt":"2009-02-08","durdis":43.1,"durdsgr1":">=12","visit1dt":"2012-09-10","rfstdtc":"2012-09-19","rfendtc":"2013-03-25","visnumen":12,"rfendt":"2013-03-25","dcdecod":"COMPLETED","dcreascd":"Completed","mmsetot":13},{"studyid":"CDISCPILOT01","usubjid":"01-713-1269","subjid":"1269","siteid":"713","sitegr1":"713","arm":"Placebo","trt01p":"Placebo","trt01pn":0,"trt01a":"Placebo","trt01an":0,"trtsdt":"2014-01-27","trtedt":"2014-07-28","trtdur":183,"avgdd":0,"cumdose":0,"age":73,"agegr1":"65-80","agegr1n":2,"ageu":"YEARS","race":"WHITE","racen":1,"sex":"M","ethnic":"NOT HISPANIC OR LATINO","saffl":"Y","ittfl":"Y","efffl":"Y","comp8fl":"Y","comp16fl":"Y","comp24fl":"Y","disconfl":"","dsraefl":"","dthfl":"","bmibl":21.9,"bmiblgr1":"<25","heightbl":185.4,"weightbl":75.3,"educlvl":16,"disonsdt":"2012-03-21","durdis":21.8,"durdsgr1":">=12","visit1dt":"2014-01-14","rfstdtc":"2014-01-27","rfendtc":"2014-07-28","visnumen":12,"rfendt":"2014-07-28","dcdecod":"COMPLETED","dcreascd":"Completed","mmsetot":23},{"studyid":"CDISCPILOT01","usubjid":"01-713-1448","subjid":"1448","siteid":"713","sitegr1":"713","arm":"Xanomeline Low Dose","trt01p":"Xanomeline Low Dose","trt01pn":54,"trt01a":"Xanomeline Low Dose","trt01an":54,"trtsdt":"2014-01-19","trtedt":"2014-05-16","trtdur":118,"avgdd":54,"cumdose":6372,"age":71,"agegr1":"65-80","agegr1n":2,"ageu":"YEARS","race":"WHITE","racen":1,"sex":"F","ethnic":"NOT HISPANIC OR LATINO","saffl":"Y","ittfl":"Y","efffl":"Y","comp8fl":"Y","comp16fl":"Y","comp24fl":"N","disconfl":"Y","dsraefl":"Y","dthfl":"","bmibl":25.5,"bmiblgr1":"25-<30","heightbl":175.3,"weightbl":78.5,"educlvl":13,"disonsdt":"2008-04-09","durdis":68.9,"durdsgr1":">=12","visit1dt":"2014-01-05","rfstdtc":"2014-01-19","rfendtc":"2014-05-17","visnumen":10,"rfendt":"2014-05-17","dcdecod":"ADVERSE EVENT","dcreascd":"Adverse Event","mmsetot":23},{"studyid":"CDISCPILOT01","usubjid":"01-714-1035","subjid":"1035","siteid":"714","sitegr1":"900","arm":"Placebo","trt01p":"Placebo","trt01pn":0,"trt01a":"Placebo","trt01an":0,"trtsdt":"2014-04-17","trtedt":"2014-10-16","trtdur":183,"avgdd":0,"cumdose":0,"age":88,"agegr1":">80","agegr1n":3,"ageu":"YEARS","race":"WHITE","racen":1,"sex":"F","ethnic":"NOT HISPANIC OR LATINO","saffl":"Y","ittfl":"Y","efffl":"Y","comp8fl":"Y","comp16fl":"Y","comp24fl":"Y","disconfl":"","dsraefl":"","dthfl":"","bmibl":24.6,"bmiblgr1":"<25","heightbl":148.6,"weightbl":54.4,"educlvl":12,"disonsdt":"2011-04-02","durdis":36.1,"durdsgr1":">=12","visit1dt":"2014-04-03","rfstdtc":"2014-04-17","rfendtc":"2014-10-16","visnumen":12,"rfendt":"2014-10-16","dcdecod":"COMPLETED","dcreascd":"Completed","mmsetot":17},{"studyid":"CDISCPILOT01","usubjid":"01-714-1068","subjid":"1068","siteid":"714","sitegr1":"900","arm":"Xanomeline Low Dose","trt01p":"Xanomeline Low Dose","trt01pn":54,"trt01a":"Xanomeline Low Dose","trt01an":54,"trtsdt":"2013-08-08","trtedt":"2013-10-08","trtdur":62,"avgdd":54,"cumdose":3348,"age":79,"agegr1":"65-80","agegr1n":2,"ageu":"YEARS","race":"WHITE","racen":1,"sex":"F","ethnic":"NOT HISPANIC OR LATINO","saffl":"Y","ittfl":"Y","efffl":"Y","comp8fl":"Y","comp16fl":"N","comp24fl":"N","disconfl":"Y","dsraefl":"Y","dthfl":"","bmibl":23,"bmiblgr1":"<25","heightbl":153.7,"weightbl":54.4,"educlvl":9,"disonsdt":"2012-07-24","durdis":12.3,"durdsgr1":">=12","visit1dt":"2013-07-31","rfstdtc":"2013-08-08","rfendtc":"2013-10-16","visnumen":9,"rfendt":"2013-10-16","dcdecod":"ADVERSE EVENT","dcreascd":"Adverse Event","mmsetot":18},{"studyid":"CDISCPILOT01","usubjid":"01-714-1195","subjid":"1195","siteid":"714","sitegr1":"900","arm":"Xanomeline Low Dose","trt01p":"Xanomeline Low Dose","trt01pn":54,"trt01a":"Xanomeline Low Dose","trt01an":54,"trtsdt":"2013-04-26","trtedt":"2013-10-23","trtdur":181,"avgdd":54,"cumdose":9774,"age":75,"agegr1":"65-80","agegr1n":2,"ageu":"YEARS","race":"WHITE","racen":1,"sex":"M","ethnic":"NOT HISPANIC OR LATINO","saffl":"Y","ittfl":"Y","efffl":"Y","comp8fl":"Y","comp16fl":"Y","comp24fl":"Y","disconfl":"","dsraefl":"","dthfl":"","bmibl":28.7,"bmiblgr1":"25-<30","heightbl":172.7,"weightbl":85.7,"educlvl":16,"disonsdt":"2011-04-30","durdis":23.6,"durdsgr1":">=12","visit1dt":"2013-04-16","rfstdtc":"2013-04-26","rfendtc":"2013-10-23","visnumen":12,"rfendt":"2013-10-23","dcdecod":"COMPLETED","dcreascd":"Completed","mmsetot":19},{"studyid":"CDISCPILOT01","usubjid":"01-714-1288","subjid":"1288","siteid":"714","sitegr1":"900","arm":"Xanomeline High Dose","trt01p":"Xanomeline High Dose","trt01pn":81,"trt01a":"Xanomeline High Dose","trt01an":81,"trtsdt":"2013-12-04","trtedt":"2014-06-17","trtdur":196,"avgdd":76.2,"cumdose":14931,"age":77,"agegr1":"65-80","agegr1n":2,"ageu":"YEARS","race":"BLACK OR AFRICAN AMERICAN","racen":2,"sex":"M","ethnic":"NOT HISPANIC OR LATINO","saffl":"Y","ittfl":"Y","efffl":"Y","comp8fl":"Y","comp16fl":"Y","comp24fl":"Y","disconfl":"","dsraefl":"","dthfl":"","bmibl":18.7,"bmiblgr1":"<25","heightbl":162.6,"weightbl":49.4,"educlvl":6,"disonsdt":"2009-11-11","durdis":48.5,"durdsgr1":">=12","visit1dt":"2013-11-24","rfstdtc":"2013-12-04","rfendtc":"2014-06-17","visnumen":12,"rfendt":"2014-06-17","dcdecod":"COMPLETED","dcreascd":"Completed","mmsetot":19},{"studyid":"CDISCPILOT01","usubjid":"01-714-1375","subjid":"1375","siteid":"714","sitegr1":"900","arm":"Placebo","trt01p":"Placebo","trt01pn":0,"trt01a":"Placebo","trt01an":0,"trtsdt":"2013-02-26","trtedt":"2013-09-07","trtdur":194,"avgdd":0,"cumdose":0,"age":78,"agegr1":"65-80","agegr1n":2,"ageu":"YEARS","race":"WHITE","racen":1,"sex":"F","ethnic":"NOT HISPANIC OR LATINO","saffl":"Y","ittfl":"Y","efffl":"Y","comp8fl":"Y","comp16fl":"Y","comp24fl":"Y","disconfl":"","dsraefl":"","dthfl":"","bmibl":25.6,"bmiblgr1":"25-<30","heightbl":149.9,"weightbl":57.6,"educlvl":10,"disonsdt":"2008-02-10","durdis":60.5,"durdsgr1":">=12","visit1dt":"2013-02-23","rfstdtc":"2013-02-26","rfendtc":"2013-09-07","visnumen":12,"rfendt":"2013-09-07","dcdecod":"COMPLETED","dcreascd":"Completed","mmsetot":17},{"studyid":"CDISCPILOT01","usubjid":"01-714-1425","subjid":"1425","siteid":"714","sitegr1":"900","arm":"Xanomeline High Dose","trt01p":"Xanomeline High Dose","trt01pn":81,"trt01a":"Xanomeline High Dose","trt01an":81,"trtsdt":"2013-08-15","trtedt":"2013-08-19","trtdur":5,"avgdd":54,"cumdose":270,"age":81,"agegr1":">80","agegr1n":3,"ageu":"YEARS","race":"WHITE","racen":1,"sex":"M","ethnic":"NOT HISPANIC OR LATINO","saffl":"Y","ittfl":"Y","efffl":"Y","comp8fl":"N","comp16fl":"N","comp24fl":"N","disconfl":"Y","dsraefl":"","dthfl":"","bmibl":29,"bmiblgr1":"25-<30","heightbl":177.8,"weightbl":91.6,"educlvl":16,"disonsdt":"2010-07-30","durdis":36.4,"durdsgr1":">=12","visit1dt":"2013-08-11","rfstdtc":"2013-08-15","rfendtc":"2013-08-22","visnumen":4,"rfendt":"2013-08-22","dcdecod":"STUDY TERMINATED BY SPONSOR","dcreascd":"Sponsor Decision","mmsetot":22},{"studyid":"CDISCPILOT01","usubjid":"01-715-1085","subjid":"1085","siteid":"715","sitegr1":"900","arm":"Xanomeline Low Dose","trt01p":"Xanomeline Low Dose","trt01pn":54,"trt01a":"Xanomeline Low Dose","trt01an":54,"trtsdt":"2013-02-16","trtedt":"2013-08-18","trtdur":184,"avgdd":54,"cumdose":9936,"age":77,"agegr1":"65-80","agegr1n":2,"ageu":"YEARS","race":"WHITE","racen":1,"sex":"F","ethnic":"NOT HISPANIC OR LATINO","saffl":"Y","ittfl":"Y","efffl":"Y","comp8fl":"Y","comp16fl":"Y","comp24fl":"Y","disconfl":"","dsraefl":"","dthfl":"","bmibl":21.8,"bmiblgr1":"<25","heightbl":162.6,"weightbl":57.6,"educlvl":14,"disonsdt":"2010-08-02","durdis":30.1,"durdsgr1":">=12","visit1dt":"2013-02-03","rfstdtc":"2013-02-16","rfendtc":"2013-08-18","visnumen":12,"rfendt":"2013-08-18","dcdecod":"COMPLETED","dcreascd":"Completed","mmsetot":23},{"studyid":"CDISCPILOT01","usubjid":"01-715-1107","subjid":"1107","siteid":"715","sitegr1":"900","arm":"Xanomeline Low Dose","trt01p":"Xanomeline Low Dose","trt01pn":54,"trt01a":"Xanomeline Low Dose","trt01an":54,"trtsdt":"2013-02-26","trtedt":"2013-05-07","trtdur":71,"avgdd":54,"cumdose":3834,"age":65,"agegr1":"65-80","agegr1n":2,"ageu":"YEARS","race":"WHITE","racen":1,"sex":"M","ethnic":"NOT HISPANIC OR LATINO","saffl":"Y","ittfl":"Y","efffl":"Y","comp8fl":"Y","comp16fl":"N","comp24fl":"N","disconfl":"Y","dsraefl":"Y","dthfl":"","bmibl":23.3,"bmiblgr1":"<25","heightbl":172.7,"weightbl":69.4,"educlvl":12,"disonsdt":"2011-09-22","durdis":16.8,"durdsgr1":">=12","visit1dt":"2013-02-12","rfstdtc":"2013-02-26","rfendtc":"2013-05-13","visnumen":9,"rfendt":"2013-05-13","dcdecod":"ADVERSE EVENT","dcreascd":"Adverse Event","mmsetot":23},{"studyid":"CDISCPILOT01","usubjid":"01-715-1155","subjid":"1155","siteid":"715","sitegr1":"900","arm":"Placebo","trt01p":"Placebo","trt01pn":0,"trt01a":"Placebo","trt01an":0,"trtsdt":"2013-12-13","trtedt":"2014-01-25","trtdur":44,"avgdd":0,"cumdose":0,"age":59,"agegr1":"<65","agegr1n":1,"ageu":"YEARS","race":"WHITE","racen":1,"sex":"F","ethnic":"NOT HISPANIC OR LATINO","saffl":"Y","ittfl":"Y","efffl":"N","comp8fl":"N","comp16fl":"N","comp24fl":"N","disconfl":"Y","dsraefl":"","dthfl":"","bmibl":23.3,"bmiblgr1":"<25","heightbl":165.1,"weightbl":63.5,"educlvl":12,"disonsdt":"2010-12-09","durdis":35.7,"durdsgr1":">=12","visit1dt":"2013-11-29","rfstdtc":"2013-12-13","rfendtc":"2014-04-26","visnumen":7,"rfendt":"2014-04-26","dcdecod":"WITHDRAWAL BY SUBJECT","dcreascd":"Withdrew Consent","mmsetot":10},{"studyid":"CDISCPILOT01","usubjid":"01-715-1207","subjid":"1207","siteid":"715","sitegr1":"900","arm":"Placebo","trt01p":"Placebo","trt01pn":0,"trt01a":"Placebo","trt01an":0,"trtsdt":"2012-11-18","trtedt":"2013-05-27","trtdur":191,"avgdd":0,"cumdose":0,"age":78,"agegr1":"65-80","agegr1n":2,"ageu":"YEARS","race":"WHITE","racen":1,"sex":"F","ethnic":"NOT HISPANIC OR LATINO","saffl":"Y","ittfl":"Y","efffl":"Y","comp8fl":"Y","comp16fl":"Y","comp24fl":"Y","disconfl":"","dsraefl":"","dthfl":"","bmibl":21.3,"bmiblgr1":"<25","heightbl":152.4,"weightbl":49.4,"educlvl":7,"disonsdt":"2010-04-06","durdis":31.3,"durdsgr1":">=12","visit1dt":"2012-11-12","rfstdtc":"2012-11-18","rfendtc":"2013-06-01","visnumen":12,"rfendt":"2013-06-01","dcdecod":"COMPLETED","dcreascd":"Completed","mmsetot":20},{"studyid":"CDISCPILOT01","usubjid":"01-715-1319","subjid":"1319","siteid":"715","sitegr1":"900","arm":"Xanomeline High Dose","trt01p":"Xanomeline High Dose","trt01pn":81,"trt01a":"Xanomeline High Dose","trt01an":81,"trtsdt":"2013-02-17","trtedt":"2013-03-05","trtdur":17,"avgdd":57.2,"cumdose":972,"age":65,"agegr1":"65-80","agegr1n":2,"ageu":"YEARS","race":"WHITE","racen":1,"sex":"M","ethnic":"NOT HISPANIC OR LATINO","saffl":"Y","ittfl":"Y","efffl":"Y","comp8fl":"N","comp16fl":"N","comp24fl":"N","disconfl":"Y","dsraefl":"","dthfl":"","bmibl":25.4,"bmiblgr1":"25-<30","heightbl":172.7,"weightbl":75.8,"educlvl":13,"disonsdt":"2007-08-12","durdis":65.8,"durdsgr1":">=12","visit1dt":"2013-02-03","rfstdtc":"2013-02-17","rfendtc":"2013-03-18","visnumen":5,"rfendt":"2013-03-18","dcdecod":"WITHDRAWAL BY SUBJECT","dcreascd":"Withdrew Consent","mmsetot":12},{"studyid":"CDISCPILOT01","usubjid":"01-715-1321","subjid":"1321","siteid":"715","sitegr1":"900","arm":"Xanomeline High Dose","trt01p":"Xanomeline High Dose","trt01pn":81,"trt01a":"Xanomeline High Dose","trt01an":81,"trtsdt":"2014-02-11","trtedt":"2014-04-21","trtdur":70,"avgdd":74.8,"cumdose":5238,"age":75,"agegr1":"65-80","agegr1n":2,"ageu":"YEARS","race":"WHITE","racen":1,"sex":"F","ethnic":"NOT HISPANIC OR LATINO","saffl":"Y","ittfl":"Y","efffl":"Y","comp8fl":"Y","comp16fl":"N","comp24fl":"N","disconfl":"Y","dsraefl":"Y","dthfl":"","bmibl":22.7,"bmiblgr1":"<25","heightbl":162.6,"weightbl":59.9,"educlvl":12,"disonsdt":"2010-11-30","durdis":38.3,"durdsgr1":">=12","visit1dt":"2014-02-06","rfstdtc":"2014-02-11","rfendtc":"2014-04-22","visnumen":9,"rfendt":"2014-04-22","dcdecod":"ADVERSE EVENT","dcreascd":"Adverse Event","mmsetot":23},{"studyid":"CDISCPILOT01","usubjid":"01-715-1397","subjid":"1397","siteid":"715","sitegr1":"900","arm":"Placebo","trt01p":"Placebo","trt01pn":0,"trt01a":"Placebo","trt01an":0,"trtsdt":"2013-04-03","trtedt":"2013-10-02","trtdur":183,"avgdd":0,"cumdose":0,"age":76,"agegr1":"65-80","agegr1n":2,"ageu":"YEARS","race":"WHITE","racen":1,"sex":"F","ethnic":"NOT HISPANIC OR LATINO","saffl":"Y","ittfl":"Y","efffl":"Y","comp8fl":"Y","comp16fl":"Y","comp24fl":"Y","disconfl":"","dsraefl":"","dthfl":"","bmibl":28.9,"bmiblgr1":"25-<30","heightbl":152.4,"weightbl":67.1,"educlvl":11,"disonsdt":"2012-05-16","durdis":10.2,"durdsgr1":"<12","visit1dt":"2013-03-20","rfstdtc":"2013-04-03","rfendtc":"2013-10-03","visnumen":12,"rfendt":"2013-10-03","dcdecod":"COMPLETED","dcreascd":"Completed","mmsetot":22},{"studyid":"CDISCPILOT01","usubjid":"01-715-1405","subjid":"1405","siteid":"715","sitegr1":"900","arm":"Xanomeline Low Dose","trt01p":"Xanomeline Low Dose","trt01pn":54,"trt01a":"Xanomeline Low Dose","trt01an":54,"trtsdt":"2013-07-06","trtedt":"2013-07-07","trtdur":2,"avgdd":54,"cumdose":108,"age":69,"agegr1":"65-80","agegr1n":2,"ageu":"YEARS","race":"WHITE","racen":1,"sex":"M","ethnic":"NOT HISPANIC OR LATINO","saffl":"Y","ittfl":"Y","efffl":"Y","comp8fl":"N","comp16fl":"N","comp24fl":"N","disconfl":"Y","dsraefl":"Y","dthfl":"","bmibl":21.5,"bmiblgr1":"<25","heightbl":180.3,"weightbl":69.9,"educlvl":16,"disonsdt":"2004-02-21","durdis":112.2,"durdsgr1":">=12","visit1dt":"2013-06-27","rfstdtc":"2013-07-06","rfendtc":"2013-07-13","visnumen":4,"rfendt":"2013-07-13","dcdecod":"ADVERSE EVENT","dcreascd":"Adverse Event","mmsetot":10},{"studyid":"CDISCPILOT01","usubjid":"01-716-1024","subjid":"1024","siteid":"716","sitegr1":"716","arm":"Placebo","trt01p":"Placebo","trt01pn":0,"trt01a":"Placebo","trt01an":0,"trtsdt":"2012-07-09","trtedt":"2013-01-20","trtdur":196,"avgdd":0,"cumdose":0,"age":87,"agegr1":">80","agegr1n":3,"ageu":"YEARS","race":"WHITE","racen":1,"sex":"F","ethnic":"NOT HISPANIC OR LATINO","saffl":"Y","ittfl":"Y","efffl":"Y","comp8fl":"Y","comp16fl":"Y","comp24fl":"Y","disconfl":"","dsraefl":"","dthfl":"","bmibl":22.7,"bmiblgr1":"<25","heightbl":154.9,"weightbl":54.4,"educlvl":12,"disonsdt":"2011-12-01","durdis":7.2,"durdsgr1":"<12","visit1dt":"2012-07-06","rfstdtc":"2012-07-09","rfendtc":"2013-01-20","visnumen":12,"rfendt":"2013-01-20","dcdecod":"COMPLETED","dcreascd":"Completed","mmsetot":22},{"studyid":"CDISCPILOT01","usubjid":"01-716-1026","subjid":"1026","siteid":"716","sitegr1":"716","arm":"Placebo","trt01p":"Placebo","trt01pn":0,"trt01a":"Placebo","trt01an":0,"trtsdt":"2014-04-02","trtedt":"2014-10-16","trtdur":198,"avgdd":0,"cumdose":0,"age":73,"agegr1":"65-80","agegr1n":2,"ageu":"YEARS","race":"WHITE","racen":1,"sex":"F","ethnic":"NOT HISPANIC OR LATINO","saffl":"Y","ittfl":"Y","efffl":"Y","comp8fl":"Y","comp16fl":"Y","comp24fl":"Y","disconfl":"","dsraefl":"","dthfl":"","bmibl":33.3,"bmiblgr1":">=30","heightbl":154.9,"weightbl":79.8,"educlvl":12,"disonsdt":"2010-09-02","durdis":42.7,"durdsgr1":">=12","visit1dt":"2014-03-23","rfstdtc":"2014-04-02","rfendtc":"2014-10-16","visnumen":12,"rfendt":"2014-10-16","dcdecod":"COMPLETED","dcreascd":"Completed","mmsetot":11},{"studyid":"CDISCPILOT01","usubjid":"01-716-1030","subjid":"1030","siteid":"716","sitegr1":"716","arm":"Xanomeline High Dose","trt01p":"Xanomeline High Dose","trt01pn":81,"trt01a":"Xanomeline High Dose","trt01an":81,"trtsdt":"2013-12-28","trtedt":"2014-01-02","trtdur":6,"avgdd":54,"cumdose":324,"age":83,"agegr1":">80","agegr1n":3,"ageu":"YEARS","race":"WHITE","racen":1,"sex":"F","ethnic":"NOT HISPANIC OR LATINO","saffl":"Y","ittfl":"Y","efffl":"Y","comp8fl":"N","comp16fl":"N","comp24fl":"N","disconfl":"Y","dsraefl":"","dthfl":"","bmibl":33.2,"bmiblgr1":">=30","heightbl":150.6,"weightbl":75.3,"educlvl":12,"disonsdt":"2011-09-06","durdis":27.7,"durdsgr1":">=12","visit1dt":"2013-12-25","rfstdtc":"2013-12-28","rfendtc":"2014-01-10","visnumen":4,"rfendt":"2014-01-10","dcdecod":"WITHDRAWAL BY SUBJECT","dcreascd":"Withdrew Consent","mmsetot":16},{"studyid":"CDISCPILOT01","usubjid":"01-716-1044","subjid":"1044","siteid":"716","sitegr1":"716","arm":"Placebo","trt01p":"Placebo","trt01pn":0,"trt01a":"Placebo","trt01an":0,"trtsdt":"2013-04-27","trtedt":"2013-11-03","trtdur":191,"avgdd":0,"cumdose":0,"age":74,"agegr1":"65-80","agegr1n":2,"ageu":"YEARS","race":"WHITE","racen":1,"sex":"M","ethnic":"NOT HISPANIC OR LATINO","saffl":"Y","ittfl":"Y","efffl":"Y","comp8fl":"Y","comp16fl":"Y","comp24fl":"Y","disconfl":"","dsraefl":"","dthfl":"","bmibl":28.9,"bmiblgr1":"25-<30","heightbl":172.7,"weightbl":86.2,"educlvl":12,"disonsdt":"2011-03-21","durdis":25,"durdsgr1":">=12","visit1dt":"2013-04-20","rfstdtc":"2013-04-27","rfendtc":"2013-11-03","visnumen":12,"rfendt":"2013-11-03","dcdecod":"COMPLETED","dcreascd":"Completed","mmsetot":14},{"studyid":"CDISCPILOT01","usubjid":"01-716-1063","subjid":"1063","siteid":"716","sitegr1":"716","arm":"Xanomeline Low Dose","trt01p":"Xanomeline Low Dose","trt01pn":54,"trt01a":"Xanomeline Low Dose","trt01an":54,"trtsdt":"2013-05-09","trtedt":"2013-08-25","trtdur":109,"avgdd":54,"cumdose":5886,"age":80,"agegr1":"65-80","agegr1n":2,"ageu":"YEARS","race":"WHITE","racen":1,"sex":"M","ethnic":"NOT HISPANIC OR LATINO","saffl":"Y","ittfl":"Y","efffl":"Y","comp8fl":"Y","comp16fl":"Y","comp24fl":"N","disconfl":"Y","dsraefl":"Y","dthfl":"","bmibl":28.4,"bmiblgr1":"25-<30","heightbl":160,"weightbl":72.6,"educlvl":8,"disonsdt":"2003-04-01","durdis":121.2,"durdsgr1":">=12","visit1dt":"2013-05-06","rfstdtc":"2013-05-09","rfendtc":"2013-08-28","visnumen":10,"rfendt":"2013-08-28","dcdecod":"ADVERSE EVENT","dcreascd":"Adverse Event","mmsetot":17},{"studyid":"CDISCPILOT01","usubjid":"01-716-1071","subjid":"1071","siteid":"716","sitegr1":"716","arm":"Xanomeline High Dose","trt01p":"Xanomeline High Dose","trt01pn":81,"trt01a":"Xanomeline High Dose","trt01an":81,"trtsdt":"2013-06-08","trtedt":"2013-08-01","trtdur":55,"avgdd":73.6,"cumdose":4050,"age":78,"agegr1":"65-80","agegr1n":2,"ageu":"YEARS","race":"WHITE","racen":1,"sex":"F","ethnic":"NOT HISPANIC OR LATINO","saffl":"Y","ittfl":"Y","efffl":"Y","comp8fl":"Y","comp16fl":"N","comp24fl":"N","disconfl":"Y","dsraefl":"Y","dthfl":"","bmibl":32,"bmiblgr1":">=30","heightbl":154.9,"weightbl":76.7,"educlvl":12,"disonsdt":"2010-12-01","durdis":30.1,"durdsgr1":">=12","visit1dt":"2013-06-03","rfstdtc":"2013-06-08","rfendtc":"2013-08-01","visnumen":8,"rfendt":"2013-08-01","dcdecod":"ADVERSE EVENT","dcreascd":"Adverse Event","mmsetot":20},{"studyid":"CDISCPILOT01","usubjid":"01-716-1094","subjid":"1094","siteid":"716","sitegr1":"716","arm":"Xanomeline Low Dose","trt01p":"Xanomeline Low Dose","trt01pn":54,"trt01a":"Xanomeline Low Dose","trt01an":54,"trtsdt":"2012-12-19","trtedt":"2013-01-24","trtdur":37,"avgdd":54,"cumdose":1998,"age":82,"agegr1":">80","agegr1n":3,"ageu":"YEARS","race":"WHITE","racen":1,"sex":"M","ethnic":"NOT HISPANIC OR LATINO","saffl":"Y","ittfl":"Y","efffl":"Y","comp8fl":"N","comp16fl":"N","comp24fl":"N","disconfl":"Y","dsraefl":"Y","dthfl":"","bmibl":28.3,"bmiblgr1":"25-<30","heightbl":168.9,"weightbl":80.7,"educlvl":8,"disonsdt":"2007-12-28","durdis":59.7,"durdsgr1":">=12","visit1dt":"2012-12-16","rfstdtc":"2012-12-19","rfendtc":"2013-01-26","visnumen":7,"rfendt":"2013-01-26","dcdecod":"ADVERSE EVENT","dcreascd":"Adverse Event","mmsetot":11},{"studyid":"CDISCPILOT01","usubjid":"01-716-1103","subjid":"1103","siteid":"716","sitegr1":"716","arm":"Xanomeline Low Dose","trt01p":"Xanomeline Low Dose","trt01pn":54,"trt01a":"Xanomeline Low Dose","trt01an":54,"trtsdt":"2014-03-20","trtedt":"2014-09-20","trtdur":185,"avgdd":54,"cumdose":9990,"age":79,"agegr1":"65-80","agegr1n":2,"ageu":"YEARS","race":"WHITE","racen":1,"sex":"M","ethnic":"NOT HISPANIC OR LATINO","saffl":"Y","ittfl":"Y","efffl":"Y","comp8fl":"Y","comp16fl":"Y","comp24fl":"Y","disconfl":"","dsraefl":"","dthfl":"","bmibl":25.6,"bmiblgr1":"25-<30","heightbl":165.1,"weightbl":69.9,"educlvl":8,"disonsdt":"2011-07-07","durdis":32.4,"durdsgr1":">=12","visit1dt":"2014-03-18","rfstdtc":"2014-03-20","rfendtc":"2014-09-20","visnumen":12,"rfendt":"2014-09-20","dcdecod":"COMPLETED","dcreascd":"Completed","mmsetot":22},{"studyid":"CDISCPILOT01","usubjid":"01-716-1108","subjid":"1108","siteid":"716","sitegr1":"716","arm":"Placebo","trt01p":"Placebo","trt01pn":0,"trt01a":"Placebo","trt01an":0,"trtsdt":"2013-02-12","trtedt":"2013-08-10","trtdur":180,"avgdd":0,"cumdose":0,"age":86,"agegr1":">80","agegr1n":3,"ageu":"YEARS","race":"WHITE","racen":1,"sex":"F","ethnic":"NOT HISPANIC OR LATINO","saffl":"Y","ittfl":"Y","efffl":"Y","comp8fl":"Y","comp16fl":"Y","comp24fl":"Y","disconfl":"","dsraefl":"","dthfl":"","bmibl":26,"bmiblgr1":"25-<30","heightbl":142.2,"weightbl":52.6,"educlvl":12,"disonsdt":"2012-02-14","durdis":11.7,"durdsgr1":"<12","visit1dt":"2013-02-04","rfstdtc":"2013-02-12","rfendtc":"2013-08-10","visnumen":12,"rfendt":"2013-08-10","dcdecod":"COMPLETED","dcreascd":"Completed","mmsetot":21},{"studyid":"CDISCPILOT01","usubjid":"01-716-1151","subjid":"1151","siteid":"716","sitegr1":"716","arm":"Xanomeline Low Dose","trt01p":"Xanomeline Low Dose","trt01pn":54,"trt01a":"Xanomeline Low Dose","trt01an":54,"trtsdt":"2013-02-01","trtedt":"2013-05-11","trtdur":100,"avgdd":54,"cumdose":5400,"age":83,"agegr1":">80","agegr1n":3,"ageu":"YEARS","race":"WHITE","racen":1,"sex":"F","ethnic":"NOT HISPANIC OR LATINO","saffl":"Y","ittfl":"Y","efffl":"Y","comp8fl":"Y","comp16fl":"Y","comp24fl":"N","disconfl":"Y","dsraefl":"Y","dthfl":"","bmibl":19.7,"bmiblgr1":"<25","heightbl":152.4,"weightbl":45.8,"educlvl":18,"disonsdt":"2010-03-17","durdis":34.3,"durdsgr1":">=12","visit1dt":"2013-01-23","rfstdtc":"2013-02-01","rfendtc":"2013-06-07","visnumen":10,"rfendt":"2013-06-07","dcdecod":"ADVERSE EVENT","dcreascd":"Adverse Event","mmsetot":22},{"studyid":"CDISCPILOT01","usubjid":"01-716-1157","subjid":"1157","siteid":"716","sitegr1":"716","arm":"Xanomeline Low Dose","trt01p":"Xanomeline Low Dose","trt01pn":54,"trt01a":"Xanomeline Low Dose","trt01an":54,"trtsdt":"2013-10-02","trtedt":"2014-04-04","trtdur":185,"avgdd":54,"cumdose":9990,"age":85,"agegr1":">80","agegr1n":3,"ageu":"YEARS","race":"WHITE","racen":1,"sex":"M","ethnic":"NOT HISPANIC OR LATINO","saffl":"Y","ittfl":"Y","efffl":"Y","comp8fl":"Y","comp16fl":"Y","comp24fl":"Y","disconfl":"","dsraefl":"","dthfl":"","bmibl":23.2,"bmiblgr1":"<25","heightbl":160,"weightbl":59.4,"educlvl":14,"disonsdt":"2008-04-10","durdis":65.5,"durdsgr1":">=12","visit1dt":"2013-09-23","rfstdtc":"2013-10-02","rfendtc":"2014-04-05","visnumen":12,"rfendt":"2014-04-05","dcdecod":"COMPLETED","dcreascd":"Completed","mmsetot":20},{"studyid":"CDISCPILOT01","usubjid":"01-716-1160","subjid":"1160","siteid":"716","sitegr1":"716","arm":"Placebo","trt01p":"Placebo","trt01pn":0,"trt01a":"Placebo","trt01an":0,"trtsdt":"2013-04-05","trtedt":"2013-10-11","trtdur":190,"avgdd":0,"cumdose":0,"age":83,"agegr1":">80","agegr1n":3,"ageu":"YEARS","race":"WHITE","racen":1,"sex":"F","ethnic":"NOT HISPANIC OR LATINO","saffl":"Y","ittfl":"Y","efffl":"Y","comp8fl":"Y","comp16fl":"Y","comp24fl":"Y","disconfl":"","dsraefl":"","dthfl":"","bmibl":24.1,"bmiblgr1":"<25","heightbl":157.5,"weightbl":59.9,"educlvl":12,"disonsdt":"2011-06-04","durdis":21.7,"durdsgr1":">=12","visit1dt":"2013-03-23","rfstdtc":"2013-04-05","rfendtc":"2013-10-11","visnumen":12,"rfendt":"2013-10-11","dcdecod":"COMPLETED","dcreascd":"Completed","mmsetot":23},{"studyid":"CDISCPILOT01","usubjid":"01-716-1167","subjid":"1167","siteid":"716","sitegr1":"716","arm":"Xanomeline Low Dose","trt01p":"Xanomeline Low Dose","trt01pn":54,"trt01a":"Xanomeline Low Dose","trt01an":54,"trtsdt":"2012-10-08","trtedt":"2013-04-12","trtdur":187,"avgdd":54,"cumdose":10098,"age":68,"agegr1":"65-80","agegr1n":2,"ageu":"YEARS","race":"WHITE","racen":1,"sex":"M","ethnic":"NOT HISPANIC OR LATINO","saffl":"Y","ittfl":"Y","efffl":"Y","comp8fl":"Y","comp16fl":"Y","comp24fl":"Y","disconfl":"","dsraefl":"","dthfl":"","bmibl":24.8,"bmiblgr1":"<25","heightbl":158.8,"weightbl":62.6,"educlvl":12,"disonsdt":"2012-01-04","durdis":8.9,"durdsgr1":"<12","visit1dt":"2012-09-30","rfstdtc":"2012-10-08","rfendtc":"2013-04-13","visnumen":12,"rfendt":"2013-04-13","dcdecod":"COMPLETED","dcreascd":"Completed","mmsetot":19},{"studyid":"CDISCPILOT01","usubjid":"01-716-1177","subjid":"1177","siteid":"716","sitegr1":"716","arm":"Placebo","trt01p":"Placebo","trt01pn":0,"trt01a":"Placebo","trt01an":0,"trtsdt":"2014-09-02","trtedt":"2015-03-05","trtdur":185,"avgdd":0,"cumdose":0,"age":72,"agegr1":"65-80","agegr1n":2,"ageu":"YEARS","race":"WHITE","racen":1,"sex":"M","ethnic":"NOT HISPANIC OR LATINO","saffl":"Y","ittfl":"Y","efffl":"Y","comp8fl":"Y","comp16fl":"Y","comp24fl":"Y","disconfl":"","dsraefl":"","dthfl":"","bmibl":27.3,"bmiblgr1":"25-<30","heightbl":177.8,"weightbl":86.2,"educlvl":12,"disonsdt":"2013-04-08","durdis":16.7,"durdsgr1":">=12","visit1dt":"2014-08-29","rfstdtc":"2014-09-02","rfendtc":"2015-03-05","visnumen":12,"rfendt":"2015-03-05","dcdecod":"COMPLETED","dcreascd":"Completed","mmsetot":21},{"studyid":"CDISCPILOT01","usubjid":"01-716-1189","subjid":"1189","siteid":"716","sitegr1":"716","arm":"Xanomeline High Dose","trt01p":"Xanomeline High Dose","trt01pn":81,"trt01a":"Xanomeline High Dose","trt01an":81,"trtsdt":"2012-10-09","trtedt":"2013-02-27","trtdur":142,"avgdd":78,"cumdose":11070,"age":81,"agegr1":">80","agegr1n":3,"ageu":"YEARS","race":"WHITE","racen":1,"sex":"M","ethnic":"NOT HISPANIC OR LATINO","saffl":"Y","ittfl":"Y","efffl":"Y","comp8fl":"Y","comp16fl":"Y","comp24fl":"N","disconfl":"Y","dsraefl":"Y","dthfl":"","bmibl":27.4,"bmiblgr1":"25-<30","heightbl":163.8,"weightbl":73.5,"educlvl":9,"disonsdt":"2008-08-19","durdis":49.6,"durdsgr1":">=12","visit1dt":"2012-10-07","rfstdtc":"2012-10-09","rfendtc":"2013-03-03","visnumen":11,"rfendt":"2013-03-03","dcdecod":"ADVERSE EVENT","dcreascd":"Adverse Event","mmsetot":21},{"studyid":"CDISCPILOT01","usubjid":"01-716-1229","subjid":"1229","siteid":"716","sitegr1":"716","arm":"Xanomeline High Dose","trt01p":"Xanomeline High Dose","trt01pn":81,"trt01a":"Xanomeline High Dose","trt01an":81,"trtsdt":"2013-02-20","trtedt":"2013-03-31","trtdur":40,"avgdd":70.9,"cumdose":2835,"age":73,"agegr1":"65-80","agegr1n":2,"ageu":"YEARS","race":"WHITE","racen":1,"sex":"F","ethnic":"NOT HISPANIC OR LATINO","saffl":"Y","ittfl":"Y","efffl":"Y","comp8fl":"N","comp16fl":"N","comp24fl":"N","disconfl":"Y","dsraefl":"Y","dthfl":"","bmibl":24.6,"bmiblgr1":"<25","heightbl":161.3,"weightbl":64,"educlvl":16,"disonsdt":"2011-08-09","durdis":18.3,"durdsgr1":">=12","visit1dt":"2013-02-14","rfstdtc":"2013-02-20","rfendtc":"2013-04-02","visnumen":7,"rfendt":"2013-04-02","dcdecod":"ADVERSE EVENT","dcreascd":"Adverse Event","mmsetot":22},{"studyid":"CDISCPILOT01","usubjid":"01-716-1298","subjid":"1298","siteid":"716","sitegr1":"716","arm":"Xanomeline Low Dose","trt01p":"Xanomeline Low Dose","trt01pn":54,"trt01a":"Xanomeline Low Dose","trt01an":54,"trtsdt":"2013-04-08","trtedt":"2013-06-28","trtdur":82,"avgdd":54,"cumdose":4428,"age":76,"agegr1":"65-80","agegr1n":2,"ageu":"YEARS","race":"WHITE","racen":1,"sex":"F","ethnic":"NOT HISPANIC OR LATINO","saffl":"Y","ittfl":"Y","efffl":"Y","comp8fl":"Y","comp16fl":"N","comp24fl":"N","disconfl":"Y","dsraefl":"Y","dthfl":"","bmibl":29.4,"bmiblgr1":"25-<30","heightbl":156.2,"weightbl":71.7,"educlvl":12,"disonsdt":"2008-05-15","durdis":58.7,"durdsgr1":">=12","visit1dt":"2013-04-04","rfstdtc":"2013-04-08","rfendtc":"2013-07-06","visnumen":9,"rfendt":"2013-07-06","dcdecod":"ADVERSE EVENT","dcreascd":"Adverse Event","mmsetot":11},{"studyid":"CDISCPILOT01","usubjid":"01-716-1308","subjid":"1308","siteid":"716","sitegr1":"716","arm":"Placebo","trt01p":"Placebo","trt01pn":0,"trt01a":"Placebo","trt01an":0,"trtsdt":"2013-08-28","trtedt":"2013-10-07","trtdur":41,"avgdd":0,"cumdose":0,"age":76,"agegr1":"65-80","agegr1n":2,"ageu":"YEARS","race":"WHITE","racen":1,"sex":"F","ethnic":"NOT HISPANIC OR LATINO","saffl":"Y","ittfl":"Y","efffl":"Y","comp8fl":"N","comp16fl":"N","comp24fl":"N","disconfl":"Y","dsraefl":"","dthfl":"","bmibl":23.6,"bmiblgr1":"<25","heightbl":157.5,"weightbl":58.5,"educlvl":13,"disonsdt":"2009-11-17","durdis":45.2,"durdsgr1":">=12","visit1dt":"2013-08-23","rfstdtc":"2013-08-28","rfendtc":"2013-10-07","visnumen":7,"rfendt":"2013-10-07","dcdecod":"WITHDRAWAL BY SUBJECT","dcreascd":"Withdrew Consent","mmsetot":13},{"studyid":"CDISCPILOT01","usubjid":"01-716-1311","subjid":"1311","siteid":"716","sitegr1":"716","arm":"Xanomeline Low Dose","trt01p":"Xanomeline Low Dose","trt01pn":54,"trt01a":"Xanomeline Low Dose","trt01an":54,"trtsdt":"2014-05-14","trtedt":"2014-09-21","trtdur":131,"avgdd":54,"cumdose":7074,"age":78,"agegr1":"65-80","agegr1n":2,"ageu":"YEARS","race":"WHITE","racen":1,"sex":"M","ethnic":"NOT HISPANIC OR LATINO","saffl":"Y","ittfl":"Y","efffl":"Y","comp8fl":"Y","comp16fl":"Y","comp24fl":"N","disconfl":"Y","dsraefl":"","dthfl":"","bmibl":27.1,"bmiblgr1":"25-<30","heightbl":172.7,"weightbl":80.7,"educlvl":14,"disonsdt":"2003-06-16","durdis":130.8,"durdsgr1":">=12","visit1dt":"2014-05-08","rfstdtc":"2014-05-14","rfendtc":"2014-09-30","visnumen":11,"rfendt":"2014-09-30","dcdecod":"WITHDRAWAL BY SUBJECT","dcreascd":"Withdrew Consent","mmsetot":11},{"studyid":"CDISCPILOT01","usubjid":"01-716-1364","subjid":"1364","siteid":"716","sitegr1":"716","arm":"Xanomeline High Dose","trt01p":"Xanomeline High Dose","trt01pn":81,"trt01a":"Xanomeline High Dose","trt01an":81,"trtsdt":"2013-07-04","trtedt":"2014-01-09","trtdur":190,"avgdd":76.6,"cumdose":14553,"age":84,"agegr1":">80","agegr1n":3,"ageu":"YEARS","race":"WHITE","racen":1,"sex":"F","ethnic":"NOT HISPANIC OR LATINO","saffl":"Y","ittfl":"Y","efffl":"Y","comp8fl":"Y","comp16fl":"Y","comp24fl":"Y","disconfl":"","dsraefl":"","dthfl":"","bmibl":20.4,"bmiblgr1":"<25","heightbl":162.6,"weightbl":54,"educlvl":12,"disonsdt":"2010-08-10","durdis":34.6,"durdsgr1":">=12","visit1dt":"2013-06-27","rfstdtc":"2013-07-04","rfendtc":"2014-01-09","visnumen":12,"rfendt":"2014-01-09","dcdecod":"COMPLETED","dcreascd":"Completed","mmsetot":17},{"studyid":"CDISCPILOT01","usubjid":"01-716-1373","subjid":"1373","siteid":"716","sitegr1":"716","arm":"Xanomeline High Dose","trt01p":"Xanomeline High Dose","trt01pn":81,"trt01a":"Xanomeline High Dose","trt01an":81,"trtsdt":"2012-12-14","trtedt":"2013-02-27","trtdur":76,"avgdd":75,"cumdose":5697,"age":74,"agegr1":"65-80","agegr1n":2,"ageu":"YEARS","race":"WHITE","racen":1,"sex":"M","ethnic":"NOT HISPANIC OR LATINO","saffl":"Y","ittfl":"Y","efffl":"Y","comp8fl":"Y","comp16fl":"N","comp24fl":"N","disconfl":"Y","dsraefl":"Y","dthfl":"","bmibl":32,"bmiblgr1":">=30","heightbl":147.3,"weightbl":69.4,"educlvl":16,"disonsdt":"2009-05-21","durdis":42.2,"durdsgr1":">=12","visit1dt":"2012-11-24","rfstdtc":"2012-12-14","rfendtc":"2013-02-28","visnumen":9,"rfendt":"2013-02-28","dcdecod":"ADVERSE EVENT","dcreascd":"Adverse Event","mmsetot":23},{"studyid":"CDISCPILOT01","usubjid":"01-716-1418","subjid":"1418","siteid":"716","sitegr1":"716","arm":"Xanomeline High Dose","trt01p":"Xanomeline High Dose","trt01pn":81,"trt01a":"Xanomeline High Dose","trt01an":81,"trtsdt":"2013-05-05","trtedt":"2013-11-20","trtdur":200,"avgdd":77.1,"cumdose":15417,"age":80,"agegr1":"65-80","agegr1n":2,"ageu":"YEARS","race":"WHITE","racen":1,"sex":"F","ethnic":"NOT HISPANIC OR LATINO","saffl":"Y","ittfl":"Y","efffl":"Y","comp8fl":"Y","comp16fl":"Y","comp24fl":"Y","disconfl":"","dsraefl":"","dthfl":"","bmibl":25.3,"bmiblgr1":"25-<30","heightbl":165.1,"weightbl":69,"educlvl":8,"disonsdt":"2010-05-02","durdis":35.9,"durdsgr1":">=12","visit1dt":"2013-04-27","rfstdtc":"2013-05-05","rfendtc":"2013-11-20","visnumen":12,"rfendt":"2013-11-20","dcdecod":"COMPLETED","dcreascd":"Completed","mmsetot":20},{"studyid":"CDISCPILOT01","usubjid":"01-716-1441","subjid":"1441","siteid":"716","sitegr1":"716","arm":"Placebo","trt01p":"Placebo","trt01pn":0,"trt01a":"Placebo","trt01an":0,"trtsdt":"2014-01-22","trtedt":"2014-07-22","trtdur":182,"avgdd":0,"cumdose":0,"age":85,"agegr1":">80","agegr1n":3,"ageu":"YEARS","race":"WHITE","racen":1,"sex":"M","ethnic":"NOT HISPANIC OR LATINO","saffl":"Y","ittfl":"Y","efffl":"Y","comp8fl":"Y","comp16fl":"Y","comp24fl":"Y","disconfl":"","dsraefl":"","dthfl":"","bmibl":27.5,"bmiblgr1":"25-<30","heightbl":144.8,"weightbl":57.6,"educlvl":10,"disonsdt":"2010-05-25","durdis":43.7,"durdsgr1":">=12","visit1dt":"2014-01-13","rfstdtc":"2014-01-22","rfendtc":"2014-07-22","visnumen":12,"rfendt":"2014-07-22","dcdecod":"COMPLETED","dcreascd":"Completed","mmsetot":22},{"studyid":"CDISCPILOT01","usubjid":"01-716-1447","subjid":"1447","siteid":"716","sitegr1":"716","arm":"Xanomeline High Dose","trt01p":"Xanomeline High Dose","trt01pn":81,"trt01a":"Xanomeline High Dose","trt01an":81,"trtsdt":"2013-12-16","trtedt":"2014-06-17","trtdur":184,"avgdd":77.2,"cumdose":14202,"age":72,"agegr1":"65-80","agegr1n":2,"ageu":"YEARS","race":"WHITE","racen":1,"sex":"F","ethnic":"NOT HISPANIC OR LATINO","saffl":"Y","ittfl":"Y","efffl":"Y","comp8fl":"Y","comp16fl":"Y","comp24fl":"Y","disconfl":"","dsraefl":"","dthfl":"","bmibl":24.2,"bmiblgr1":"<25","heightbl":149.9,"weightbl":54.4,"educlvl":14,"disonsdt":"2010-05-15","durdis":42.9,"durdsgr1":">=12","visit1dt":"2013-12-10","rfstdtc":"2013-12-16","rfendtc":"2014-06-17","visnumen":12,"rfendt":"2014-06-17","dcdecod":"COMPLETED","dcreascd":"Completed","mmsetot":22},{"studyid":"CDISCPILOT01","usubjid":"01-717-1004","subjid":"1004","siteid":"717","sitegr1":"900","arm":"Xanomeline Low Dose","trt01p":"Xanomeline Low Dose","trt01pn":54,"trt01a":"Xanomeline Low Dose","trt01an":54,"trtsdt":"2014-01-14","trtedt":"2014-07-16","trtdur":184,"avgdd":54,"cumdose":9936,"age":80,"agegr1":"65-80","agegr1n":2,"ageu":"YEARS","race":"WHITE","racen":1,"sex":"F","ethnic":"NOT HISPANIC OR LATINO","saffl":"Y","ittfl":"Y","efffl":"Y","comp8fl":"Y","comp16fl":"Y","comp24fl":"Y","disconfl":"","dsraefl":"","dthfl":"","bmibl":30.2,"bmiblgr1":">=30","heightbl":135.9,"weightbl":55.8,"educlvl":15,"disonsdt":"2010-05-08","durdis":43.9,"durdsgr1":">=12","visit1dt":"2014-01-01","rfstdtc":"2014-01-14","rfendtc":"2014-07-16","visnumen":12,"rfendt":"2014-07-16","dcdecod":"COMPLETED","dcreascd":"Completed","mmsetot":13},{"studyid":"CDISCPILOT01","usubjid":"01-717-1109","subjid":"1109","siteid":"717","sitegr1":"900","arm":"Xanomeline High Dose","trt01p":"Xanomeline High Dose","trt01pn":81,"trt01a":"Xanomeline High Dose","trt01an":81,"trtsdt":"2014-01-27","trtedt":"2014-07-28","trtdur":183,"avgdd":77.3,"cumdose":14148,"age":84,"agegr1":">80","agegr1n":3,"ageu":"YEARS","race":"WHITE","racen":1,"sex":"M","ethnic":"NOT HISPANIC OR LATINO","saffl":"Y","ittfl":"Y","efffl":"Y","comp8fl":"Y","comp16fl":"Y","comp24fl":"Y","disconfl":"","dsraefl":"","dthfl":"","bmibl":13.7,"bmiblgr1":"<25","heightbl":180.3,"weightbl":44.5,"educlvl":17,"disonsdt":"2012-03-11","durdis":22.4,"durdsgr1":">=12","visit1dt":"2014-01-20","rfstdtc":"2014-01-27","rfendtc":"2014-07-28","visnumen":12,"rfendt":"2014-07-28","dcdecod":"COMPLETED","dcreascd":"Completed","mmsetot":20},{"studyid":"CDISCPILOT01","usubjid":"01-717-1174","subjid":"1174","siteid":"717","sitegr1":"900","arm":"Xanomeline High Dose","trt01p":"Xanomeline High Dose","trt01pn":81,"trt01a":"Xanomeline High Dose","trt01an":81,"trtsdt":"2013-01-22","trtedt":"2013-07-24","trtdur":184,"avgdd":76.5,"cumdose":14067,"age":73,"agegr1":"65-80","agegr1n":2,"ageu":"YEARS","race":"WHITE","racen":1,"sex":"M","ethnic":"NOT HISPANIC OR LATINO","saffl":"Y","ittfl":"Y","efffl":"Y","comp8fl":"Y","comp16fl":"Y","comp24fl":"Y","disconfl":"","dsraefl":"","dthfl":"","bmibl":24.2,"bmiblgr1":"<25","heightbl":167.6,"weightbl":68,"educlvl":16,"disonsdt":"2010-09-02","durdis":28.5,"durdsgr1":">=12","visit1dt":"2013-01-16","rfstdtc":"2013-01-22","rfendtc":"2013-07-24","visnumen":12,"rfendt":"2013-07-24","dcdecod":"COMPLETED","dcreascd":"Completed","mmsetot":22},{"studyid":"CDISCPILOT01","usubjid":"01-717-1201","subjid":"1201","siteid":"717","sitegr1":"900","arm":"Placebo","trt01p":"Placebo","trt01pn":0,"trt01a":"Placebo","trt01an":0,"trtsdt":"2013-12-19","trtedt":"2014-02-21","trtdur":65,"avgdd":0,"cumdose":0,"age":85,"agegr1":">80","agegr1n":3,"ageu":"YEARS","race":"WHITE","racen":1,"sex":"F","ethnic":"NOT HISPANIC OR LATINO","saffl":"Y","ittfl":"Y","efffl":"Y","comp8fl":"Y","comp16fl":"N","comp24fl":"N","disconfl":"Y","dsraefl":"","dthfl":"","bmibl":26.6,"bmiblgr1":"25-<30","heightbl":160,"weightbl":68,"educlvl":12,"disonsdt":"2011-03-23","durdis":32.7,"durdsgr1":">=12","visit1dt":"2013-12-12","rfstdtc":"2013-12-19","rfendtc":"2014-02-21","visnumen":8,"rfendt":"2014-02-21","dcdecod":"LACK OF EFFICACY","dcreascd":"Lack of Efficacy","mmsetot":23},{"studyid":"CDISCPILOT01","usubjid":"01-717-1344","subjid":"1344","siteid":"717","sitegr1":"900","arm":"Placebo","trt01p":"Placebo","trt01pn":0,"trt01a":"Placebo","trt01an":0,"trtsdt":"2014-01-11","trtedt":"2014-03-14","trtdur":63,"avgdd":0,"cumdose":0,"age":64,"agegr1":"<65","agegr1n":1,"ageu":"YEARS","race":"WHITE","racen":1,"sex":"F","ethnic":"NOT HISPANIC OR LATINO","saffl":"Y","ittfl":"Y","efffl":"Y","comp8fl":"Y","comp16fl":"N","comp24fl":"N","disconfl":"Y","dsraefl":"","dthfl":"","bmibl":21.7,"bmiblgr1":"<25","heightbl":163.5,"weightbl":58.1,"educlvl":16,"disonsdt":"2008-09-10","durdis":63.7,"durdsgr1":">=12","visit1dt":"2014-01-01","rfstdtc":"2014-01-11","rfendtc":"2014-03-14","visnumen":8,"rfendt":"2014-03-14","dcdecod":"LACK OF EFFICACY","dcreascd":"Lack of Efficacy","mmsetot":21},{"studyid":"CDISCPILOT01","usubjid":"01-717-1357","subjid":"1357","siteid":"717","sitegr1":"900","arm":"Xanomeline High Dose","trt01p":"Xanomeline High Dose","trt01pn":81,"trt01a":"Xanomeline High Dose","trt01an":81,"trtsdt":"2013-05-01","trtedt":"2013-10-14","trtdur":167,"avgdd":78.6,"cumdose":13122,"age":77,"agegr1":"65-80","agegr1n":2,"ageu":"YEARS","race":"WHITE","racen":1,"sex":"M","ethnic":"NOT HISPANIC OR LATINO","saffl":"Y","ittfl":"Y","efffl":"Y","comp8fl":"Y","comp16fl":"Y","comp24fl":"Y","disconfl":"Y","dsraefl":"","dthfl":"","bmibl":24.7,"bmiblgr1":"<25","heightbl":181.6,"weightbl":81.3,"educlvl":14,"disonsdt":"2010-02-20","durdis":38,"durdsgr1":">=12","visit1dt":"2013-04-21","rfstdtc":"2013-05-01","rfendtc":"2013-10-20","visnumen":12,"rfendt":"2013-10-20","dcdecod":"STUDY TERMINATED BY SPONSOR","dcreascd":"Sponsor Decision","mmsetot":12},{"studyid":"CDISCPILOT01","usubjid":"01-717-1446","subjid":"1446","siteid":"717","sitegr1":"900","arm":"Xanomeline Low Dose","trt01p":"Xanomeline Low Dose","trt01pn":54,"trt01a":"Xanomeline Low Dose","trt01an":54,"trtsdt":"2013-09-01","trtedt":"2014-03-03","trtdur":184,"avgdd":54,"cumdose":9936,"age":75,"agegr1":"65-80","agegr1n":2,"ageu":"YEARS","race":"WHITE","racen":1,"sex":"F","ethnic":"NOT HISPANIC OR LATINO","saffl":"Y","ittfl":"Y","efffl":"Y","comp8fl":"Y","comp16fl":"Y","comp24fl":"Y","disconfl":"","dsraefl":"","dthfl":"","bmibl":19.3,"bmiblgr1":"<25","heightbl":156.2,"weightbl":47.2,"educlvl":12,"disonsdt":"2010-02-10","durdis":42.3,"durdsgr1":">=12","visit1dt":"2013-08-20","rfstdtc":"2013-09-01","rfendtc":"2014-03-04","visnumen":12,"rfendt":"2014-03-04","dcdecod":"COMPLETED","dcreascd":"Completed","mmsetot":21},{"studyid":"CDISCPILOT01","usubjid":"01-718-1066","subjid":"1066","siteid":"718","sitegr1":"718","arm":"Xanomeline Low Dose","trt01p":"Xanomeline Low Dose","trt01pn":54,"trt01a":"Xanomeline Low Dose","trt01an":54,"trtsdt":"2013-07-07","trtedt":"2013-07-16","trtdur":10,"avgdd":54,"cumdose":540,"age":79,"agegr1":"65-80","agegr1n":2,"ageu":"YEARS","race":"WHITE","racen":1,"sex":"F","ethnic":"NOT HISPANIC OR LATINO","saffl":"Y","ittfl":"Y","efffl":"Y","comp8fl":"N","comp16fl":"N","comp24fl":"N","disconfl":"Y","dsraefl":"Y","dthfl":"","bmibl":20,"bmiblgr1":"<25","heightbl":158.8,"weightbl":50.4,"educlvl":14,"d